Time (s),Gyroscope X (deg/s),Gyroscope Y (deg/s),Gyroscope Z (deg/s),Accelerometer X (g),Accelerometer Y (g),Accelerometer Z (g),Magnetometer X (uT),Magnetometer Y (uT),Magnetometer Z (uT),Barometer (hPa)
0.000000000,-0.03346059,-0.3151049,-0.1237767,-0.1346878,-0.7272121,0.6891481,11.52794,33.62016,-3.397141,992.1839
0.007602691,-0.09560662,-0.4921386,-0.001204393,-0.132208,-0.7291162,0.6905398,10.44349,33.25663,-3.412451,992.1839
0.015205383,-0.157655,-0.3735226,0.05997651,-0.1312877,-0.7252573,0.6930524,10.44349,33.25663,-3.412451,992.1839
0.022808075,-0.1576824,-0.1958029,0.05990077,-0.1346552,-0.7295935,0.6861878,10.44349,33.25663,-3.412451,992.1839
0.032944202,0.215757,-0.07733032,-0.06278413,-0.1370657,-0.7315909,0.6871096,10.44349,33.25663,-3.412451,992.1839
0.040546894,0.1532979,0.2184669,0.4271557,-0.1464286,-0.7274135,0.6862817,10.44349,33.25663,-3.412451,992.1839
0.048150062,0.2153506,0.1591199,0.1205658,-0.1465792,-0.7182217,0.6865209,10.44349,33.25663,-3.412451,992.1839
0.055751323,0.1529702,0.04076198,-0.2469535,-0.1411252,-0.7224912,0.6883249,10.44349,33.25663,-3.412451,992.1839
0.063354015,-0.09600145,-0.2549451,-0.3691765,-0.1361957,-0.7252568,0.6853393,11.9152,33.23055,-2.951981,992.1839
0.070956707,-0.158069,0.1000307,-0.246296,-0.132714,-0.7281523,0.6900834,11.9152,33.23055,-2.951981,992.1839
0.078559398,-0.095723,-0.2549477,-0.4297764,-0.140616,-0.7239138,0.6868373,11.9152,33.23055,-2.951981,992.1839
0.086161136,-0.8419784,0.04129548,-0.3067426,-0.1302192,-0.7305777,0.6943599,11.9152,33.23055,-2.951981,992.1839
0.093763828,-0.03262287,-0.5503408,-0.5515574,-0.1362424,-0.7228004,0.682505,11.9152,33.23055,-2.951981,992.1873
0.101366520,-0.7167602,0.04160787,-0.4897234,-0.1336165,-0.732105,0.694814,11.9152,33.23055,-2.951981,992.1873
0.108968735,-0.280842,-0.8457159,-0.9792964,-0.1371362,-0.7276831,0.6843132,11.14435,33.62465,-3.40065,992.1873
0.116571426,-0.5916215,0.6334984,-0.1822288,-0.1396371,-0.7239001,0.6873176,11.14435,33.62465,-3.40065,992.1873
0.126708030,-0.4045802,-0.7268195,-0.9167727,-0.1298284,-0.72563,0.6867586,11.14435,33.62465,-3.40065,992.1873
0.134309768,-0.5907708,-0.07586055,-0.7322542,-0.1307649,-0.7289613,0.6808786,11.14435,33.62465,-3.40065,992.1873
0.141912460,-0.09263739,0.042549,-0.4865951,-0.1205043,-0.7278347,0.6847396,11.14435,33.62465,-3.40065,992.1873
0.149515152,-0.4034379,0.1015571,-0.118654,-0.1311727,-0.7329353,0.6880221,11.14435,33.62465,-3.40065,992.1873
0.157117843,0.1567161,0.2197995,-0.05728552,-0.133227,-0.727151,0.6867298,11.14544,33.25729,-3.853033,992.1873
0.164720058,-0.2166141,-0.07605762,-0.2409055,-0.1337607,-0.7238307,0.6911651,11.14544,33.25729,-3.853033,992.1873
0.172322273,-0.2163514,0.219627,-0.05704301,-0.1326914,-0.7295974,0.6895628,11.14544,33.25729,-3.853033,992.1914
0.179924965,-0.2782861,-0.07621142,-0.2407017,-0.1395524,-0.7278829,0.6959085,11.14544,33.25729,-3.853033,992.1914
0.187527180,-0.5269099,0.2194176,-0.5467393,-0.1376902,-0.7229303,0.6902348,11.14544,33.25729,-3.853033,992.1914
0.195129871,-0.5887083,-0.1945173,-0.7299751,-0.1361562,-0.7263494,0.6949715,11.14544,33.25729,-3.853033,992.1914
0.202732563,-0.7125869,-0.1352486,-0.4230999,-0.1327733,-0.7251871,0.6853303,11.14544,33.25729,-3.853033,992.1914
0.210334301,-0.4009105,-0.1350654,-0.4838425,-0.1307801,-0.7271137,0.6876891,10.76185,33.26177,-3.856544,992.1914
0.220471859,-0.3381317,-0.1351372,-0.483254,-0.1308138,-0.724726,0.6901665,10.76185,33.26177,-3.856544,992.1932
0.228073597,-0.08900517,0.4561601,-0.176669,-0.1360781,-0.731181,0.6943627,10.76185,33.26177,-3.856544,992.1932
0.235676288,-1.021936,-0.8451337,-0.6664217,-0.1233217,-0.7342523,0.6898953,10.76185,33.26177,-3.856544,992.1932
0.243278980,-0.2745693,0.6335227,-0.2372661,-0.1439665,-0.7292238,0.6804305,10.76185,33.26177,-3.856544,992.1932
0.250881195,-0.8963794,-0.8451202,-0.5431915,-0.1348811,-0.7164688,0.6816992,10.76185,33.26177,-3.856544,992.1932
0.258483410,-0.7709451,-0.0758232,-0.4201855,-0.1350966,-0.7325062,0.6861135,11.14565,33.61576,-2.953634,992.1932
0.266085625,-0.6458832,-0.1940527,-0.54238,-0.1337191,-0.7267022,0.6886752,11.14565,33.61576,-2.953634,992.1932
0.273688316,-0.9561429,-0.193684,-0.3582335,-0.1277448,-0.7333369,0.6870348,11.14565,33.61576,-2.953634,992.1932
0.281291008,-0.3954095,0.1020742,-0.1742028,-0.1331465,-0.731995,0.6870868,11.14565,33.61576,-2.953634,992.1932
0.288893699,-0.8926138,-0.4892106,-0.4190078,-0.1297837,-0.7276338,0.6920198,11.14565,33.61576,-2.953634,992.1932
0.296499729,-0.5184534,-0.01589902,-0.235016,-0.1297944,-0.7275776,0.687674,11.14565,33.61576,-2.953634,992.1932
0.304098129,-0.8289894,-0.3115898,0.07143133,-0.1301981,-0.7324566,0.6899636,11.14565,33.61576,-2.953634,992.1932
0.314234733,-0.6413764,-0.1340536,-0.05113336,-0.1380398,-0.7329559,0.6788657,11.14435,33.62465,-3.40065,992.1932
0.321837425,-0.4541613,-0.01577502,0.01011381,-0.1374936,-0.7354586,0.6860445,11.14435,33.62465,-3.40065,992.1932
0.329439640,-0.3915558,-0.07497561,-0.1124092,-0.1322664,-0.7279236,0.6731817,11.14435,33.62465,-3.40065,992.1932
0.337042332,-0.391226,0.2798863,-0.1735408,-0.1307499,-0.7294827,0.6837633,11.14435,33.62465,-3.40065,992.1914
0.344645023,0.04446372,0.3386894,0.01023895,-0.1297439,-0.731379,0.6822616,11.14435,33.62465,-3.40065,992.1914
0.352246761,0.230935,0.3976787,0.1325503,-0.1312282,-0.7295489,0.6881103,11.14435,33.62465,-3.40065,992.1914
0.359853268,-0.01805149,0.3381628,-0.05128697,-0.1342098,-0.7275859,0.6814082,10.75838,34.00538,-3.398796,992.1914
0.367452144,-0.01809312,0.04217556,0.1323968,-0.1351659,-0.7286047,0.6838,10.75838,34.00538,-3.398796,992.1914
0.375054836,-0.1424312,0.337823,0.1935673,-0.1307425,-0.7290801,0.6900531,10.75838,34.00538,-3.398796,992.1914
0.382657051,-0.08008034,0.0418547,0.1320512,-0.1390082,-0.7330258,0.6827312,10.75838,34.00538,-3.398796,992.1914
0.390259266,-0.3910881,0.04188957,0.07076631,-0.1394944,-0.7326083,0.6870909,10.75838,34.00538,-3.398796,992.1914
0.397861481,0.04469918,0.100917,-0.1743465,-0.1483576,-0.7298035,0.6809123,10.75838,34.00538,-3.398796,992.1914
0.405464172,-0.2663675,-0.1357056,-0.3579332,-0.1414406,-0.7326981,0.690959,11.14197,34.00089,-3.395285,992.1914
0.415600777,-0.1414824,0.2192746,-0.7248893,-0.1399701,-0.7340133,0.6827086,11.14197,34.00089,-3.395285,992.1914
0.423203468,-0.3901767,-0.1355747,-0.7241678,-0.1308042,-0.7261024,0.6843343,11.14197,34.00089,-3.395285,992.1914
0.430806160,-0.3275924,-0.01722036,-0.6622287,-0.1350534,-0.7349438,0.6874992,11.14197,34.00089,-3.395285,992.1914
0.438407898,-0.2651453,-0.1355236,-0.6002711,-0.1306754,-0.7342954,0.6817058,11.14197,34.00089,-3.395285,992.1914
0.446010589,-0.4515845,0.1010387,-0.5384296,-0.1331671,-0.7310024,0.6851805,11.14197,34.00089,-3.395285,992.1914
0.453613281,-0.140193,-0.1355282,-0.5378838,-0.1302519,-0.7299627,0.6842322,11.14197,34.00089,-3.395285,992.1914
0.461215496,-0.07790293,0.1010341,-0.6598135,-0.1267899,-0.732312,0.6841602,11.52794,33.62016,-3.397141,992.1914
0.468818188,-0.01565197,0.04209499,-0.4142996,-0.1229579,-0.7273945,0.6842759,11.52794,33.62016,-3.397141,992.1914
0.476420402,-0.140051,0.1602448,-0.1689786,-0.126284,-0.7332758,0.6846166,11.52794,33.62016,-3.397141,992.1914
0.484022617,0.171047,0.3376102,0.01493153,-0.1380384,-0.7311958,0.6924364,11.52794,33.62016,-3.397141,992.1914
0.491625309,0.04653068,0.1006903,-0.04633925,-0.1379904,-0.7349848,0.6860583,11.52794,33.62016,-3.397141,992.1914
0.499229431,-0.01572981,0.04143568,-0.2299696,-0.1302242,-0.7309927,0.6890357,11.52794,33.62016,-3.397141,992.1914
0.509364605,0.2330197,0.1594616,0.01526921,-0.1362054,-0.7256469,0.6780837,10.44111,33.63287,-3.407085,992.1914
0.516967296,-0.1403629,0.2187312,-0.1682652,-0.1341152,-0.732505,0.6875596,10.44111,33.63287,-3.407085,992.1914
0.524569034,0.4195237,-0.313931,-0.5969231,-0.1293139,-0.7261975,0.6939877,10.44111,33.63287,-3.407085,992.1914
0.532171726,0.1704378,0.5142295,-0.0453002,-0.1302266,-0.7309803,0.6880699,10.44111,33.63287,-3.407085,992.1914
0.539773941,0.356888,-0.07757377,-0.3515412,-0.1395775,-0.7281916,0.6823755,10.44111,33.63287,-3.407085,992.1896
0.547376633,0.107822,0.3364874,-0.04500329,-0.1396021,-0.726294,0.6853231,10.44111,33.63287,-3.407085,992.1896
0.554979324,0.2321342,0.2771221,-0.4122703,-0.134637,-0.7305735,0.6871284,10.76077,33.62914,-3.404161,992.1896
0.562581062,0.04530462,-0.07772593,-0.4118049,-0.1311648,-0.7334191,0.6880096,10.76077,33.62914,-3.404161,992.1896
0.570183754,0.1695975,0.04051819,-0.3501217,-0.1331929,-0.7290986,0.6876452,10.76077,33.62914,-3.404161,992.1896
0.577786446,0.293871,0.04046149,-0.3497533,-0.127361,-0.7265852,0.6896242,10.76077,33.62914,-3.404161,992.1914
0.585389137,0.4803223,0.217884,-0.1044546,-0.1385213,-0.7325633,0.6851568,10.76077,33.62914,-3.404161,992.1914
0.592991352,0.479772,-0.07800848,-0.2267927,-0.1264034,-0.7251328,0.691108,10.76077,33.62914,-3.404161,992.1914
0.603127956,0.4792866,0.1586169,-0.04269922,-0.1229596,-0.7265019,0.6900955,11.14544,33.25729,-3.853033,992.1914
0.610730648,0.7277406,0.1585604,0.3859649,-0.126901,-0.7242126,0.6940317,11.14544,33.25729,-3.853033,992.1914
0.618332386,0.5405614,0.2765261,0.324306,-0.1415795,-0.7253351,0.6829391,11.14544,33.25729,-3.853033,992.1914
0.625935078,0.4156383,-0.1375925,0.07905054,-0.1381347,-0.7253842,0.6921046,11.14544,33.25729,-3.853033,992.1914
0.633537769,0.104359,0.3354806,-0.04361435,-0.141992,-0.729284,0.6881512,11.14544,33.25729,-3.853033,992.1914
0.641140461,0.2286157,-0.01951521,-0.2272665,-0.1390967,-0.7263716,0.692082,11.14544,33.25729,-3.853033,992.1914
0.648743153,-0.02030988,-0.2559871,-0.3495466,-0.1337314,-0.7257534,0.6901489,11.14544,33.25729,-3.853033,992.1914
0.656344891,0.2907338,0.09900819,-0.4104355,-0.1273296,-0.7289604,0.6861811,10.76683,32.86776,-2.967876,992.1896
0.663947582,-0.2692163,-0.1966423,-0.4100488,-0.1273363,-0.7284829,0.6866766,10.76683,32.86776,-2.967876,992.1896
0.671549797,-0.08241039,0.03994046,-0.2872067,-0.1342171,-0.7262221,0.6882062,10.76683,32.86776,-2.967876,992.1896
0.679152489,-0.3311798,-0.2556729,-0.3481543,-0.1253043,-0.7323821,0.6918823,10.76683,32.86776,-2.967876,992.1896
0.686755180,-0.144296,-0.07806428,-0.2254283,-0.1297404,-0.7313978,0.6837103,10.76683,32.86776,-2.967876,992.1896
0.696891785,-0.2686067,-0.07794766,0.01974711,-0.1287432,-0.7323642,0.6851311,10.76683,32.86776,-2.967876,992.1896
0.704493523,0.1671434,-0.1961008,-0.0415282,-0.1302586,-0.7294852,0.6847276,10.76444,33.24401,-2.962511,992.1896
0.712096214,-0.01962492,-0.1367748,0.0197292,-0.1342346,-0.7243619,0.694051,10.76444,33.24401,-2.962511,992.1896
0.719698906,-0.39275,-0.3731734,0.01963366,-0.1366647,-0.7271394,0.6804615,10.76444,33.24401,-2.962511,992.1896
0.727301598,-0.0813944,-0.4320744,-0.2253348,-0.12738,-0.7251589,0.6915934,10.76444,33.24401,-2.962511,992.1896
0.734903812,-0.3300475,0.1595028,0.1422255,-0.1406221,-0.7225562,0.6941181,10.76444,33.24401,-2.962511,992.1896
0.742506027,-0.3298342,-0.3725278,0.1422839,-0.1233998,-0.7294208,0.6905041,10.76444,33.24401,-2.962511,992.1937
0.750108719,-0.1429517,0.3961939,0.3257468,-0.1503171,-0.7302645,0.6760762,10.76444,33.24401,-2.962511,992.1937
0.757710934,-0.0808349,-0.8456609,-0.4093714,-0.1238391,-0.732786,0.6880029,10.76185,33.26177,-3.856544,992.1937
0.765313625,0.04381134,0.5148811,0.1420362,-0.1356393,-0.7300222,0.6803834,10.76185,33.26177,-3.856544,992.1937
0.772916317,0.2302637,-0.4315653,-0.2255995,-0.1352254,-0.7243131,0.688742,10.76185,33.26177,-3.856544,992.1937
0.780518055,-0.267491,0.1010002,0.08080047,-0.1351148,-0.731526,0.685173,10.76185,33.26177,-3.856544,992.192
0.790654659,0.1678143,-0.1355612,-0.04173752,-0.1306861,-0.7329128,0.6870552,10.76185,33.26177,-3.856544,992.192
0.798257351,-0.1432511,0.2785175,0.142072,-0.132251,-0.7280048,0.679459,10.76185,33.26177,-3.856544,992.192
0.805860043,0.4165405,-0.0764433,0.01946319,-0.1302829,-0.7271475,0.6910679,10.76185,33.26177,-3.856544,992.192
0.813462257,-0.01929028,0.0418925,0.3256515,-0.1302919,-0.7279838,0.6809025,10.76185,33.26177,-3.856544,992.192
0.821064949,0.540365,-0.07642925,0.2641649,-0.1297837,-0.7276338,0.6920198,10.76185,33.26177,-3.856544,992.192
0.828667164,0.4154812,0.2192743,0.3251535,-0.1307334,-0.7295702,0.6905234,10.76185,33.26177,-3.856544,992.192
0.836269379,0.2284789,0.100711,0.5085789,-0.1327318,-0.7267323,0.6925356,10.76185,33.26177,-3.856544,992.192
0.843872070,0.4148159,0.3963034,0.5694141,-0.1361149,-0.7296609,0.6890889,10.76185,33.26177,-3.856544,992.192
0.851474762,0.6009186,0.336696,0.5077363,-0.1376394,-0.7262918,0.6882152,11.15041,32.86328,-2.964365,992.192
0.859077454,0.4138589,0.3364902,0.3236609,-0.1311492,-0.7348267,0.6845917,11.15041,32.86328,-2.964365,992.192
0.866679192,0.9732819,0.4543254,0.3846127,-0.1424754,-0.7297653,0.6871742,11.15041,32.86328,-2.964365,992.192
0.874281883,0.5370243,0.1582287,0.3843465,-0.1321859,-0.729675,0.6963216,11.15041,32.86328,-2.964365,992.192
0.884418488,0.2876786,0.3356207,0.3226455,-0.1345404,-0.7359452,0.6908528,11.15041,32.86328,-2.964365,992.192
0.892021179,0.5984126,-0.1380664,0.07729537,-0.1435102,-0.7268324,0.6833894,11.15041,32.86328,-2.964365,992.192
0.899623394,-0.02406359,0.2169664,0.1384023,-0.1345357,-0.7359701,0.6927844,11.15041,32.86328,-2.964365,992.1896
0.907226086,0.2248061,-0.3744453,0.01583543,-0.1312111,-0.7305226,0.688568,11.14176,33.64241,-4.294683,992.1896
0.914828777,0.7222493,0.4534937,0.1994368,-0.1387289,-0.7204187,0.6816087,11.14176,33.64241,-4.294683,992.1896
0.922430515,-0.08705215,-0.4925605,0.138146,-0.1229375,-0.7270607,0.6958774,11.14176,33.64241,-4.294683,992.1896
0.930033207,0.3485659,-0.07860985,0.2604331,-0.1375885,-0.7309796,0.6765004,11.14176,33.64241,-4.294683,992.1896
0.937639713,0.09933184,-0.3149147,0.137732,-0.1387153,-0.7196075,0.6937056,11.14176,33.64241,-4.294683,992.1937
0.945238590,-0.3982408,-0.314618,0.1988205,-0.1390824,-0.727773,0.6881813,11.14176,33.64241,-4.294683,992.1937
0.952840805,0.1618887,-0.550979,-0.2301062,-0.1415836,-0.72443,0.687793,11.14435,33.62465,-3.40065,992.1937
0.960443020,-0.5224514,-0.9052326,-0.1684595,-0.1274652,-0.7202898,0.6893051,11.14435,33.62465,-3.40065,992.1937
0.968045235,-0.3975455,-0.5497928,-0.1682815,-0.1361191,-0.7305222,0.680855,11.14435,33.62465,-3.40065,992.1937
0.978181839,-0.45938,-0.3124818,-0.3517249,-0.1405811,-0.7263077,0.6848428,11.14435,33.62465,-3.40065,992.1937
0.985784531,-0.3343966,-1.376412,-0.4738685,-0.128515,-0.7168357,0.6826355,11.14435,33.62465,-3.40065,992.1937
0.993387222,-0.8938945,-0.6065221,-0.2895749,-0.1307973,-0.7248135,0.6969267,11.14435,33.62465,-3.40065,992.1937
1.000989914,-0.7063047,-1.019883,-0.350501,-0.1411672,-0.7200598,0.6874222,10.76336,33.61137,-2.510128,992.1937
1.008591652,-1.265569,-1.551062,-0.3500746,-0.1289095,-0.7204384,0.6984835,10.76336,33.61137,-2.510128,992.1937
1.016194343,-1.264201,-1.667883,-0.2272313,-0.1217402,-0.7119086,0.6866065,10.76336,33.61137,-2.510128,992.1937
1.023797035,-1.387717,-1.784446,-0.1044653,-0.1230394,-0.7176852,0.7193069,10.76336,33.61137,-2.510128,992.192
1.031399250,-2.318975,-2.137556,0.07932639,-0.1410923,-0.7244325,0.6887574,10.76336,33.61137,-2.510128,992.192
1.039001941,-0.8239622,-3.37706,-0.5944184,-0.1235399,-0.7189589,0.7047843,10.76336,33.61137,-2.510128,992.192
1.046603679,-2.378191,-2.900452,0.2636973,-0.1366481,-0.7272269,0.6872217,10.76336,33.61137,-2.510128,992.192
1.054206371,-0.2613861,-4.316921,-0.9615124,-0.1271817,-0.7068216,0.6964166,10.76444,33.24401,-2.962511,992.192
1.061809063,-2.87375,-4.135077,0.3867913,-0.1251179,-0.7095631,0.7243549,10.76444,33.24401,-2.962511,992.192
1.071945667,-2.744848,-5.25351,-0.2263772,-0.1428842,-0.7350593,0.6841397,10.76444,33.24401,-2.962511,992.192
1.079548359,-2.74234,-4.834572,0.01876674,-0.1351585,-0.728202,0.6900899,10.76444,33.24401,-2.962511,992.192
1.087150574,-3.548123,-4.298025,-0.3487143,-0.1498302,-0.7298021,0.6785018,10.76444,33.24401,-2.962511,992.192
1.094752788,-3.35815,-4.589533,-1.144377,-0.1394551,-0.7354671,0.6836353,10.76444,33.24401,-2.962511,992.192
1.102355480,-3.977191,-4.939926,-1.082157,-0.1419848,-0.7306478,0.6813533,11.14803,33.23952,-2.959,992.1903
1.109957695,-3.848933,-4.166715,-1.326049,-0.1418725,-0.7387534,0.6719647,11.14803,33.23952,-2.959,992.1903
1.117560386,-4.218469,-5.286062,-1.692282,-0.1425199,-0.7290877,0.6722178,11.14803,33.23952,-2.959,992.1903
1.125163078,-4.778595,-5.75934,-2.243766,-0.1223155,-0.7374752,0.6786985,11.14803,33.23952,-2.959,992.1903
1.132764816,-4.591886,-4.221187,-1.87611,-0.1247906,-0.7355961,0.6792382,11.14803,33.23952,-2.959,992.1903
1.140367508,-4.778595,-4.576146,-1.814834,-0.1041742,-0.7391483,0.6868094,11.14803,33.23952,-2.959,992.1886
1.147970199,-4.903067,-3.274631,-1.079523,-0.1158231,-0.7446963,0.6857359,11.14803,33.23952,-2.959,992.1886
1.155573368,-4.280705,-2.742193,-1.079523,-0.1231871,-0.744243,0.6765933,11.14565,33.61576,-2.953634,992.1886
1.165709495,-4.591886,-2.446394,-1.079523,-0.1247284,-0.7394601,0.6786546,11.14565,33.61576,-2.953634,992.1886
1.173311710,-3.72058,-2.091436,-1.692282,-0.1424344,-0.7335168,0.6778989,11.14565,33.61576,-2.953634,992.1886
1.180914402,-3.471635,-3.037992,-2.856526,-0.1400646,-0.7273278,0.6896451,11.14565,33.61576,-2.953634,992.1868
1.188516140,-4.965303,-3.57043,-3.162906,-0.1302625,-0.7268137,0.7026694,11.14565,33.61576,-2.953634,992.1868
1.196118831,-6.210027,-3.807069,-3.224182,-0.1321664,-0.7319876,0.6880499,11.14565,33.61576,-2.953634,992.1868
1.203721523,-6.3345,-4.043708,-4.265873,-0.1521791,-0.7334508,0.6948377,10.44479,33.24775,-2.965435,992.1868
1.211324215,-7.205807,-4.576146,-5.797773,-0.1723684,-0.7255847,0.6912415,10.44479,33.24775,-2.965435,992.1868
1.218926906,-9.259601,-7.534133,-7.881156,-0.1758819,-0.720754,0.6865478,10.44479,33.24775,-2.965435,992.1868
1.226528644,-10.13091,-9.368086,-10.08709,-0.1828809,-0.7103565,0.6950517,10.44479,33.24775,-2.965435,992.1851
1.234133243,-12.12247,-11.79364,-12.78323,-0.1975968,-0.7046535,0.717466,10.44479,33.24775,-2.965435,992.1851
1.241733551,-15.35875,-14.10087,-17.68531,-0.1830228,-0.694583,0.7476296,10.44479,33.24775,-2.965435,992.1851
1.249336243,-20.39988,-14.98826,-19.70742,-0.1686127,-0.6770182,0.7596334,10.76336,33.61137,-2.510128,992.1851
1.259472847,-29.48636,-18.89281,-21.97463,-0.1043063,-0.6894602,0.774564,10.76336,33.61137,-2.510128,992.1851
1.267075538,-36.83024,-17.41381,-21.5457,-0.08647657,-0.6995926,0.7998453,10.76336,33.61137,-2.510128,992.1834
1.274677276,-41.31124,-18.24205,-21.5457,-0.1204821,-0.7191155,0.7588706,10.76336,33.61137,-2.510128,992.1834
1.282279968,-44.42305,-19.1886,-23.44526,-0.1448256,-0.6941379,0.7731215,10.76336,33.61137,-2.510128,992.1834
1.289882660,-50.77114,-21.43667,-26.1414,-0.1581574,-0.6879675,0.761731,10.76336,33.61137,-2.510128,992.1834
1.297486305,-57.67936,-24.09886,-28.77627,-0.1492266,-0.6968738,0.7532598,10.76336,33.61137,-2.510128,992.1834
1.305087566,-62.84497,-25.93282,-30.49199,-0.1233718,-0.6920672,0.7590994,10.06141,33.61071,-2.069544,992.1834
1.312689781,-68.88188,-25.8145,-30.55327,-0.0877693,-0.68204,0.7882295,10.06141,33.61071,-2.069544,992.1834
1.320291996,-78.34178,-25.8145,-29.63413,-0.06068995,-0.6622251,0.7959042,10.06141,33.61071,-2.069544,992.1834
1.327894687,-90.35337,-25.5187,-28.46988,-0.04771446,-0.6810363,0.7736379,10.06141,33.61071,-2.069544,992.1834
1.335497379,-99.75103,-23.92138,-27.85713,-0.0428309,-0.709131,0.7825533,10.06141,33.61071,-2.069544,992.1834
1.343100071,-108.6508,-23.4481,-26.1414,-0.002170149,-0.7193406,0.7377203,10.06141,33.61071,-2.069544,992.1875
1.353236675,-119.3554,-18.30121,-22.34229,-0.006200608,-0.7443617,0.7196937,9.300505,33.21679,-0.7408791,992.1875
1.360838890,-122.9029,-19.42524,-22.21974,-0.01588434,-0.7574316,0.667217,9.300505,33.21679,-0.7408791,992.1875
1.368441105,-128.4419,-12.97683,-20.87166,-0.03115487,-0.779614,0.6739344,9.300505,33.21679,-0.7408791,992.1875
1.376043796,-136.906,-10.3738,-18.35935,-0.06018323,-0.7774661,0.6122534,9.300505,33.21679,-0.7408791,992.1875
1.383646011,-144.1254,-9.604725,-18.42063,-0.01287681,-0.8279076,0.6190051,9.300505,33.21679,-0.7408791,992.1875
1.391248703,-145.9303,-6.055139,-17.50149,-0.005683667,-0.8314334,0.5290461,9.300505,33.21679,-0.7408791,992.1875
1.398851395,-147.0505,-2.919672,-15.54065,-0.003334696,-0.8533575,0.5434433,8.542601,33.52205,3.280619,992.1875
1.406453132,-150.4113,-2.209755,-15.05045,-0.003518107,-0.849736,0.4879888,8.542601,33.52205,3.280619,992.1875
1.414055824,-151.0336,1.339829,-14.13131,-0.01869653,-0.8754987,0.5095871,8.542601,33.52205,3.280619,992.1875
1.421658516,-158.1286,0.0974746,-13.76365,0.002360153,-0.9123092,0.4694384,8.542601,33.52205,3.280619,992.1875
1.429261207,-156.8216,0.7482318,-14.56024,0.03449175,-0.9462244,0.3728147,8.542601,33.52205,3.280619,992.1875
1.436867714,-150.6602,7.137485,-11.12878,0.03333289,-0.9606965,0.4043227,8.542601,33.52205,3.280619,992.1875
1.447000027,-146.117,7.906561,-8.677744,0.04407212,-0.9410024,0.3212353,8.542601,33.52205,3.280619,992.1875
1.454602241,-139.3333,12.22522,-4.327149,0.01822027,-0.9162759,0.3151969,7.795528,32.31347,7.727671,992.1875
1.462204456,-145.3702,10.56875,-4.388425,0.003203249,-0.9345518,0.2452125,7.795528,32.31347,7.727671,992.1857
1.469807148,-139.3955,8.20236,-3.285458,-0.00877859,-0.9546318,0.2070519,7.795528,32.31347,7.727671,992.1857
1.477409840,-134.3544,9.089756,-4.817357,-0.004508566,-0.9736822,0.2268309,7.795528,32.31347,7.727671,992.1857
1.485012531,-123.712,6.782526,-4.143322,-0.005009877,-0.9291093,0.1115789,7.795528,32.31347,7.727671,992.1857
1.492614269,-124.8322,9.740513,-3.469286,-0.02391313,-0.9440086,0.2972203,7.795528,32.31347,7.727671,992.1857
1.500216961,-131.7404,8.557318,-3.71439,-0.01550285,-0.9995378,0.1503574,7.429656,31.47663,12.1836,992.1857
1.507819652,-120.7869,3.292101,-3.530562,-0.06040627,-0.9673837,-0.009999193,7.429656,31.47663,12.1836,992.1857
1.515421867,-110.269,8.379839,-5.859049,-0.08337204,-1.005809,0.1542733,7.429656,31.47663,12.1836,992.1857
1.523024559,-104.2943,7.492443,-9.841988,-0.0348178,-1.058597,0.04551453,7.429656,31.47663,12.1836,992.1857
1.530626774,-94.64767,7.196644,-9.290504,-0.05902687,-1.045376,0.0333756,7.429656,31.47663,12.1836,992.1857
1.540762901,-80.39558,4.711935,-12.47685,-0.041602,-1.014981,-0.04317552,7.429656,31.47663,12.1836,992.1857
1.548365593,-65.58336,3.173782,-13.15089,-0.0372823,-0.9751965,-0.005927932,7.448255,29.90947,15.29125,992.1857
1.555968285,-60.79117,5.83597,-13.08961,-0.009775974,-0.9722215,0.06893292,7.448255,29.90947,15.29125,992.1857
1.563570976,-59.9821,4.830255,-12.96706,-0.03006579,-0.9700093,-0.02127312,7.448255,29.90947,15.29125,992.1857
1.571173668,-50.70891,4.652775,-14.25386,-0.0385776,-1.015403,-0.006002294,7.448255,29.90947,15.29125,992.1857
1.578775406,-41.80913,3.114622,-15.11172,-0.004718472,-1.02377,-0.01695347,7.448255,29.90947,15.29125,992.1857
1.586378097,-33.34501,1.931427,-14.19258,0.01538809,-1.023687,0.008102981,7.448255,29.90947,15.29125,992.1875
1.593980789,-28.49059,1.10319,-12.66068,0.02417053,-1.056939,-0.02708416,7.448255,29.90947,15.29125,992.1875
1.601583004,-21.52013,-3.984548,-10.3322,0.04887502,-1.075486,-0.05131283,6.694313,28.80799,17.50412,992.1875
1.609185696,-10.50432,-5.641021,-7.329672,0.07762031,-1.101267,-0.07139487,6.694313,28.80799,17.50412,992.1875
1.616787434,4.743543,-4.576146,-2.79525,0.1115071,-1.110664,-0.07754254,6.694313,28.80799,17.50412,992.1875
1.624390125,21.60955,0.2157941,2.168104,0.1284631,-1.122693,-0.01946133,6.694313,28.80799,17.50412,992.1915
1.634526729,39.09792,2.700504,7.499115,0.05286293,-1.088183,-0.1110687,6.694313,28.80799,17.50412,992.1915
1.642129421,51.17175,-1.08572,8.540806,0.04893163,-1.085064,-0.09648414,6.694313,28.80799,17.50412,992.1915
1.649732113,58.70232,-5.641021,11.05312,0.08902778,-1.140284,-0.06858027,7.083756,27.68366,17.04451,992.1915
1.657334328,65.79725,-8.539849,18.52879,0.1190138,-1.24244,-0.09548076,7.083756,27.68366,17.04451,992.1915
1.664937019,69.46918,-10.84708,26.31084,0.1250927,-1.353297,-0.1606916,7.083756,27.68366,17.04451,992.1898
1.672539234,88.01557,-11.49784,33.48013,0.06452981,-1.35977,-0.3905932,7.083756,27.68366,17.04451,992.1898
1.680141449,165.6864,2.641344,26.9236,-0.04713124,-0.9319908,-0.8128929,7.083756,27.68366,17.04451,992.1898
1.687744141,269.9942,5.066894,8.663358,-0.1204505,-0.3380677,-0.3629825,7.083756,27.68366,17.04451,992.1898
1.695346832,239.374,20.38927,10.93057,0.194765,-0.7867434,0.6073423,7.083756,27.68366,17.04451,992.1898
1.702949524,134.3815,-2.683033,33.17375,0.0738775,-0.7784175,0.4108622,7.075104,28.4628,15.71419,992.1898
1.710551262,125.0461,-15.34322,26.67849,-0.3982918,-0.7967493,-0.2580919,7.075104,28.4628,15.71419,992.1898
1.718153953,167.5534,-13.39095,4.128935,-0.3758645,-1.146518,-0.01800321,7.075104,28.4628,15.71419,992.1898
1.728290558,215.0397,-45.21889,-16.7049,-0.1672713,-1.240071,0.2803212,7.075104,28.4628,15.71419,992.1898
1.735892773,238.4405,-49.00512,-23.99674,-0.09366683,-0.8188576,0.2060171,7.075104,28.4628,15.71419,992.1898
1.743495464,225.3709,-33.62358,-23.75163,0.0767756,-0.94569,0.6958457,7.075104,28.4628,15.71419,992.1898
1.751098156,200.6631,-20.3718,-12.84451,0.05666176,-0.9294406,0.5688101,7.427952,30.76855,9.937783,992.1881
1.758699894,192.199,-9.545565,-7.20712,-0.02969298,-1.004128,0.3323874,7.427952,30.76855,9.937783,992.1881
1.766302586,227.3002,-6.705896,-8.677744,-0.06104676,-0.8818136,0.3332489,7.427952,30.76855,9.937783,992.1881
1.773905277,206.2644,-13.80507,-1.937386,0.2421254,-0.9698045,0.53771,7.427952,30.76855,9.937783,992.1881
1.781507969,220.143,-20.78592,4.680419,0.2655556,-0.629565,0.394802,7.427952,30.76855,9.937783,992.1881
1.789110184,220.7032,4.356977,16.81306,0.4578387,-0.7573118,0.8029048,7.427952,30.76855,9.937783,992.1881
1.796712875,218.8361,29.08575,42.79408,0.5212449,-0.6978317,0.94433,7.400291,32.3979,3.70101,992.1881
1.804315090,205.7665,59.90798,62.34111,0.1745734,-0.5741782,0.7959989,7.400291,32.3979,3.70101,992.1881
1.811917305,198.9827,73.45557,72.94186,0.05392954,-0.7104678,0.7387395,7.400291,32.3979,3.70101,992.1881
1.819519997,198.0492,57.54159,72.14527,0.1580851,-0.5602058,0.9616122,7.400291,32.3979,3.70101,992.1881
1.829656601,232.9637,106.7033,66.81425,-0.1988414,-0.08368263,2.104457,7.400291,32.3979,3.70101,992.1881
1.837259293,173.6526,164.8574,63.75046,-0.4993643,-0.3471635,0.9363784,7.400291,32.3979,3.70101,992.1881
1.844861031,44.20129,42.21922,58.23563,-0.8218468,-0.04563472,0.8843687,7.760985,33.27027,-2.542988,992.1881
1.852463722,-45.66778,-6.942535,25.82063,-0.5104749,-0.2769672,1.514982,7.760985,33.27027,-2.542988,992.1881
1.860066414,-77.15929,0.03831485,15.89392,-0.3826106,-0.7517816,0.9626914,7.760985,33.27027,-2.542988,992.1881
1.867669105,-54.38084,0.2157941,11.84971,-0.7285663,-0.8596326,0.525285,7.760985,33.27027,-2.542988,992.1898
1.875271320,-6.583445,-19.1886,-26.44778,-0.5503008,-0.7394755,0.4239905,7.760985,33.27027,-2.542988,992.1898
1.882873535,-5.774374,-38.53384,-38.70297,-0.09522653,-0.6219954,0.7381282,7.760985,33.27027,-2.542988,992.1898
1.890475750,-32.59818,-40.95939,-30.43072,0.1412874,-0.6915112,0.794988,7.760985,33.27027,-2.542988,992.1898
1.898078442,-38.32391,-28.00341,-14.25386,0.1758337,-0.8451816,0.6788223,9.287951,33.66283,-4.247791,992.1898
1.905681133,-14.05179,-8.953967,-2.611422,0.04595267,-0.8668332,0.6144267,9.287951,33.66283,-4.247791,992.1881
1.913283825,10.84269,2.700504,-3.591838,-0.01739262,-0.7621017,0.6144495,9.287951,33.66283,-4.247791,992.1881
1.923420429,-0.5465334,-6.469257,-0.8956947,0.06472453,-0.6831158,0.7370008,9.287951,33.66283,-4.247791,992.1881
1.931022644,-5.774374,-0.1983241,2.84214,0.07956278,-0.7962281,0.6354761,9.287951,33.66283,-4.247791,992.1881
1.938624859,6.050503,5.007734,7.989322,0.0233544,-0.7696748,0.6276489,9.287951,33.66283,-4.247791,992.1881
1.946227550,7.668644,8.557318,10.31781,-0.03715996,-0.7441512,0.6550702,9.67285,34.00921,-2.961725,992.1864
1.953829765,3.685528,7.314964,11.05312,-0.1106803,-0.7675893,0.6300589,9.67285,34.00921,-2.961725,992.1864
1.961432457,6.92181,7.610762,10.01143,-0.1757577,-0.7955313,0.6295387,9.67285,34.00921,-2.961725,992.1864
1.969035149,10.46927,6.841686,7.131458,-0.221356,-0.7564995,0.646637,9.67285,34.00921,-2.961725,992.1864
1.976636887,9.473495,2.523024,3.4549,-0.2154615,-0.7256517,0.6662582,9.67285,34.00921,-2.961725,992.1864
1.984239578,6.174976,-0.9674008,0.1459969,-0.1647263,-0.7420903,0.7067288,9.67285,34.00921,-2.961725,992.1864
1.991842270,6.11274,-0.3166436,-2.366318,-0.1900752,-0.7478607,0.7013456,9.67285,34.00921,-2.961725,992.1847
1.999444962,6.11274,-3.807069,-5.613945,-0.1660668,-0.7234014,0.6821007,9.676323,33.26561,-3.419472,992.1847
2.007047176,3.187638,-5.463542,-6.778188,-0.07394301,-0.729708,0.7154582,9.676323,33.26561,-3.419472,992.1847
2.017183780,3.747764,-3.037992,-4.817357,-0.06396542,-0.7460288,0.6831223,9.676323,33.26561,-3.419472,992.1847
2.024785995,4.432363,-3.62959,-4.143322,-0.05483307,-0.7370566,0.6775301,9.676323,33.26561,-3.419472,992.1847
2.032388210,5.428142,-1.973117,-2.979078,-0.04595574,-0.7112707,0.6815531,9.676323,33.26561,-3.419472,992.1829
2.039990902,5.863795,-1.499839,-2.427594,-0.04234457,-0.7139676,0.7457154,9.676323,33.26561,-3.419472,992.1829
2.047593593,4.058945,-0.7899216,-1.87611,-0.06948201,-0.7003917,0.7389083,9.680002,32.88048,-2.977821,992.1829
2.055196285,2.751985,-1.322359,-1.569731,-0.09753347,-0.7251168,0.6977797,9.680002,32.88048,-2.977821,992.1829
2.062799930,1.445025,-2.328075,-2.672698,-0.107644,-0.7345489,0.6999817,9.680002,32.88048,-2.977821,992.1829
2.070400715,2.254095,-3.51127,-2.979078,-0.08252691,-0.7429619,0.7161071,9.680002,32.88048,-2.977821,992.1812
2.078003406,3.312111,-3.45211,-2.550146,-0.08466794,-0.7538961,0.7718619,9.680002,32.88048,-2.977821,992.1812
2.085605621,2.689749,-5.049423,-2.672698,-0.08227791,-0.7341712,0.6733444,9.680002,32.88048,-2.977821,992.1812
2.093208313,-3.72058,-3.807069,-2.79525,-0.1376852,-0.7666442,0.5895938,9.676323,33.26561,-3.419472,992.1812
2.100811004,1.507261,-7.829932,-6.778188,-0.06691077,-0.7945192,0.7591575,9.676323,33.26561,-3.419472,992.1812
2.110947609,1.133844,-3.925388,-5.307565,-0.03427537,-0.7517321,0.7959106,9.676323,33.26561,-3.419472,992.1812
2.118549347,5.054724,-4.339507,-2.243766,-0.0873779,-0.7141559,0.7270144,9.676323,33.26561,-3.419472,992.1812
2.126152038,3.00093,-2.978832,-1.937386,-0.0588413,-0.7670556,0.6328071,9.676323,33.26561,-3.419472,992.1812
2.133754730,2.751985,-0.7307619,-3.224182,-0.05376551,-0.7586657,0.7774367,9.676323,33.26561,-3.419472,992.1812
2.141357422,7.544172,-2.683033,1.126413,-0.08145596,-0.6362851,0.6671902,9.676323,33.26561,-3.419472,992.1812
2.148959636,3.125402,0.1566343,0.9425846,-0.04226616,-0.7382416,0.602106,8.911537,32.89833,-3.431856,992.1795
2.156561851,4.370126,2.404705,1.003861,-0.05552803,-0.7183028,0.7234248,8.911537,32.89833,-3.431856,992.1795
2.164164066,2.565276,1.635628,3.087244,-0.08232433,-0.6995166,0.688736,8.911537,32.89833,-3.431856,992.1795
2.171766758,3.00093,3.173782,3.516176,-0.08015025,-0.7447621,0.6720965,8.911537,32.89833,-3.431856,992.1795
2.179369449,4.681307,2.996302,2.290656,-0.0786861,-0.7116352,0.6956552,8.911537,32.89833,-3.431856,992.1795
2.186972141,1.507261,3.055462,3.025968,-0.07957971,-0.7147516,0.7105511,8.911537,32.89833,-3.431856,992.1795
2.194573879,1.507261,3.292101,3.4549,-0.08243661,-0.7231693,0.6832915,9.67135,33.65961,-4.30814,992.1795
2.204710483,0.8226629,3.883698,3.638727,-0.08096551,-0.7236044,0.6818264,9.67135,33.65961,-4.30814,992.1795
2.212313175,1.258316,3.5879,3.4549,-0.08598107,-0.7155234,0.6854334,9.67135,33.65961,-4.30814,992.1795
2.219915867,-0.11088,4.475296,3.761279,-0.07718984,-0.7117616,0.7077231,9.67135,33.65961,-4.30814,992.1795
2.227518081,-1.977966,3.765379,3.271072,-0.07018917,-0.7230517,0.6933995,9.67135,33.65961,-4.30814,992.1795
2.235120773,0.2625372,4.889414,3.332348,-0.09300662,-0.6754365,0.6816667,9.67135,33.65961,-4.30814,992.1836
2.242722988,-4.52965,3.765379,3.087244,-0.080648,-0.6803256,0.7046864,10.05753,33.63736,-3.410595,992.1836
2.250329494,-5.400957,2.937143,2.474484,-0.06850438,-0.7021381,0.7258179,10.05753,33.63736,-3.410595,992.1836
2.257927894,-5.774374,4.652775,3.14852,-0.1199231,-0.6767265,0.6643291,10.05753,33.63736,-3.410595,992.1836
2.265534401,-8.13935,1.694788,1.126413,-0.08509864,-0.7008601,0.7505383,10.05753,33.63736,-3.410595,992.1836
2.273133278,-10.31762,1.872267,0.2685488,-0.08947656,-0.7059276,0.7238536,10.05753,33.63736,-3.410595,992.1818
2.280735493,-10.75327,3.232941,-0.160383,-0.1554937,-0.7111692,0.6886645,10.05753,33.63736,-3.410595,992.1818
2.288337707,-10.37985,-0.9674008,-3.469286,-0.1273739,-0.6854802,0.7674947,10.05753,33.63736,-3.410595,992.1818
2.298474312,-19.21739,-1.499839,-4.327149,-0.1384626,-0.7333159,0.7059076,10.06229,32.88487,-3.421328,992.1818
2.306076526,-17.72372,-2.919672,-7.20712,-0.1583009,-0.7454223,0.7124183,10.06229,32.88487,-3.421328,992.1818
2.313679218,-19.27963,-2.683033,-8.922848,-0.171914,-0.7165555,0.7421935,10.06229,32.88487,-3.421328,992.1818
2.321281910,-24.94312,-7.415813,-11.12878,-0.1423881,-0.7046549,0.6921735,10.06229,32.88487,-3.421328,992.1818
2.328884601,-29.92202,-10.55128,-10.69985,-0.07125016,-0.739809,0.751898,10.06229,32.88487,-3.421328,992.1818
2.336486339,-32.34923,-8.24405,-10.39347,-0.05782584,-0.7839706,0.7439457,10.06229,32.88487,-3.421328,992.1818
2.344089031,-29.05071,-5.463542,-10.08709,-0.1103382,-0.7411766,0.7587484,9.673939,33.64185,-3.414106,992.1818
2.351691723,-29.29966,-1.558998,-9.535607,-0.2751594,-0.7014098,0.8308257,9.673939,33.64185,-3.414106,992.1818
2.359293938,-26.43679,-16.70389,-18.60445,-0.2469974,-0.4946744,0.9476887,9.673939,33.64185,-3.414106,992.1818
2.366896629,-67.8861,-32.85451,-28.59244,-0.03053437,-0.5870472,1.055703,9.673939,33.64185,-3.414106,992.1818
2.374498844,-97.38605,-29.06828,-19.52359,0.01665109,-0.7224563,0.8206619,9.673939,33.64185,-3.414106,992.1818
2.382101059,-85.62341,-18.59701,-22.15846,-0.02948793,-0.7722489,0.817582,9.673939,33.64185,-3.414106,992.1818
2.392237663,-85.37447,-15.63902,-20.25891,-0.1658815,-0.5942571,0.8400266,9.296621,33.24344,-2.08193,992.1818
2.399840355,-113.1941,-25.16374,-25.28354,-0.1266451,-0.5747295,0.8143259,9.296621,33.24344,-2.08193,992.1818
2.407443046,-131.3048,-22.08743,-24.54822,-0.1159117,-0.6683402,0.770319,9.296621,33.24344,-2.08193,992.1818
2.415045738,-136.3459,-21.43667,-26.87671,-0.1164312,-0.6726066,0.7252875,9.296621,33.24344,-2.08193,992.1818
2.422647476,-146.9261,-20.78592,-26.26395,-0.05334128,-0.6732014,0.7207254,9.296621,33.24344,-2.08193,992.1818
2.430250168,-162.2362,-17.53213,-21.05549,0.003500373,-0.7093455,0.7225049,9.296621,33.24344,-2.08193,992.1777
2.437852383,-173.7499,-14.3375,-21.5457,0.01958073,-0.7122684,0.6745576,9.296621,33.24344,-2.08193,992.1777
2.445455074,-181.6539,-9.841364,-18.4819,0.03745181,-0.7711675,0.578296,8.539806,33.18134,1.487186,992.1777
2.453057766,-185.3258,-4.398666,-15.173,0.05648187,-0.7683729,0.5792745,8.539806,33.18134,1.487186,992.1777
2.460659504,-194.6612,0.8073916,-12.41558,0.09450224,-0.7877039,0.5989397,8.539806,33.18134,1.487186,992.1777
2.468262195,-204.9302,4.002018,-8.248812,0.1076477,-0.8228785,0.5322915,8.539806,33.18134,1.487186,992.1777
2.475864887,-210.2825,8.379839,-3.71439,0.1037588,-0.8641133,0.4582941,8.539806,33.18134,1.487186,992.1801
2.486001491,-213.5188,15.12405,-0.7118668,0.04160172,-0.928544,0.4017507,8.539806,33.18134,1.487186,992.1801
2.493604183,-210.407,23.58389,2.106828,0.0278082,-0.9499213,0.1998131,7.789464,33.07484,7.291385,992.1801
2.501206398,-201.196,21.15834,3.638727,0.03471752,-1.003478,0.2713382,7.789464,33.07484,7.291385,992.1801
2.508809090,-192.0473,20.27095,3.271072,-0.01536798,-0.9773302,0.1552812,7.789464,33.07484,7.291385,992.1801
2.516411304,-186.2593,22.57818,4.557868,-0.03948547,-1.025901,0.1671376,7.789464,33.07484,7.291385,992.1801
2.524013519,-178.6665,19.62019,3.14852,-0.0439284,-1.033717,0.091112,7.789464,33.07484,7.291385,992.1801
2.531616211,-169.0199,18.55532,0.6362047,-0.1217609,-0.9602811,-0.0564752,7.789464,33.07484,7.291385,992.1801
2.539218902,-145.6191,20.62591,-5.981601,-0.1801822,-0.9107563,-0.01008162,7.789464,33.07484,7.291385,992.1801
2.546821594,-147.5484,16.72136,-10.69985,-0.0393827,-1.008384,0.1231531,7.814537,31.46326,12.63412,992.1801
2.554423332,-144.1254,5.362692,-11.25134,-0.05965063,-1.011589,0.002858024,7.814537,31.46326,12.63412,992.1801
2.562029838,-136.3459,4.889414,-12.78323,-0.0462796,-1.032989,-0.08033928,7.814537,31.46326,12.63412,992.1801
2.569628715,-120.4757,3.942858,-12.3543,-0.02020049,-1.047926,-0.1194526,7.814537,31.46326,12.63412,992.1801
2.579764843,-95.89239,8.379839,-12.29303,-0.01808235,-1.029802,-0.1325134,7.814537,31.46326,12.63412,992.1801
2.587367535,-78.52849,9.208076,-13.94748,-0.05766395,-0.9751494,-0.1531881,7.814537,31.46326,12.63412,992.1801
2.594970226,-69.442,7.669922,-15.72448,-0.05574277,-0.9766947,-0.1802843,7.457804,29.18415,17.06949,992.1783
2.602571964,-58.79961,3.824539,-16.39852,-0.01185354,-0.9826618,-0.06223437,7.457804,29.18415,17.06949,992.1783
2.610174656,-55.31439,3.232941,-14.62151,0.02171685,-1.006679,-0.09870906,7.457804,29.18415,17.06949,992.1783
2.617777347,-47.65934,2.700504,-14.07003,0.008795569,-1.056531,-0.1197678,7.457804,29.18415,17.06949,992.1783
2.625380039,-34.77644,2.049746,-13.6411,-0.01242219,-1.081501,-0.168653,7.457804,29.18415,17.06949,992.1783
2.632982254,-19.83975,-0.4941229,-15.66321,-0.03259261,-1.105492,-0.1793563,7.457804,29.18415,17.06949,992.1783
2.640587807,0.8226629,-2.683033,-20.62656,-0.084812,-1.031219,-0.2395732,7.859784,27.25403,19.28125,992.1783
2.648187160,21.36061,-0.4349631,-24.67077,-0.04329223,-1.004992,-0.0694776,7.859784,27.25403,19.28125,992.1783
2.655789375,25.28149,-0.5532826,-23.20015,-0.001051458,-0.9734086,0.02491827,7.859784,27.25403,19.28125,992.1783
2.663392067,19.99141,-1.913957,-18.11424,0.04535704,-1.017223,0.1163761,7.859784,27.25403,19.28125,992.1783
2.673528671,14.14121,-5.463542,-11.74154,0.07063349,-1.140311,0.01649141,7.859784,27.25403,19.28125,992.1801
2.681131363,24.28571,-6.942535,-8.677744,0.07584277,-1.222212,-0.005940259,7.859784,27.25403,19.28125,992.1801
2.688734054,38.22662,-6.587577,-4.939909,0.07745304,-1.210182,-0.07229175,7.859784,27.25403,19.28125,992.1801
2.696335792,51.91858,-5.404382,-0.09910705,0.1341927,-1.235624,-0.03738742,7.861965,26.51931,18.37649,992.1801
2.703938484,58.88903,-7.593293,8.908462,0.1744053,-1.310459,-0.1017703,7.861965,26.51931,18.37649,992.1801
2.711540699,67.72658,-18.77448,17.54837,0.1480454,-1.304199,-0.2522314,7.861965,26.51931,18.37649,992.1801
2.719143391,84.59258,-27.05685,22.20535,0.1345252,-1.334092,-0.3944947,7.861965,26.51931,18.37649,992.1801
2.726746082,116.5198,-29.24576,25.57553,0.24483,-1.435346,-0.3651105,7.861965,26.51931,18.37649,992.1801
2.734347820,153.6125,-9.782204,36.72776,0.3777717,-1.501242,-0.4508077,7.861965,26.51931,18.37649,992.1801
2.741950512,219.7074,5.481012,53.21099,0.2304221,-1.0172,-0.452741,7.093294,26.17868,17.02305,992.1801
2.749553204,264.2062,20.86255,33.5414,-0.09236979,-0.64693,-0.3561211,7.093294,26.17868,17.02305,992.1801
2.757155895,304.5975,21.15834,26.86232,-0.1944111,-0.2479961,-0.4062971,7.093294,26.17868,17.02305,992.1783
2.767292499,254.9953,22.04574,10.44036,-0.2359867,-0.7886953,0.866111,7.093294,26.17868,17.02305,992.1783
2.774894714,194.7507,-8.30321,6.212319,-0.3937469,-0.9963151,-0.1304561,7.093294,26.17868,17.02305,992.1783
2.782496929,235.7643,-79.53154,-10.45475,-0.5235601,-0.859201,-0.5283692,7.093294,26.17868,17.02305,992.1783
2.790099621,282.8148,-79.88651,-43.97271,-0.2077437,-1.053123,0.3968871,7.440975,29.29964,11.25827,992.1783
2.797701836,324.0152,-57.7016,-34.72003,0.1039427,-0.8001908,0.7922826,7.440975,29.29964,11.25827,992.1807
2.805304527,300.9878,-28.00341,-23.26143,0.05118715,-0.6386361,1.353587,7.440975,29.29964,11.25827,992.1807
2.812907219,193.8171,5.599331,-3.346734,-0.08792067,-0.6089402,0.6017452,7.440975,29.29964,11.25827,992.1807
2.820508957,170.7897,-16.99969,7.499115,-0.01840705,-0.8515121,0.3778577,7.440975,29.29964,11.25827,992.1807
2.828111649,189.6473,-38.2972,-1.692282,0.317088,-0.8760633,0.6312022,7.440975,29.29964,11.25827,992.1807
2.835714340,196.2443,-20.13516,3.271072,0.4701624,-0.7647207,0.5727484,7.440975,29.29964,11.25827,992.1807
2.843317032,198.4848,26.0686,33.66396,0.5407073,-0.8646176,0.5472276,7.399201,32.76526,4.153391,992.1807
2.850919247,200.5386,62.33353,63.3828,0.2882096,-0.9810832,0.2856099,7.399201,32.76526,4.153391,992.1807
2.861055851,249.1451,68.19035,59.89008,0.6407188,-0.8133376,0.5946151,7.399201,32.76526,4.153391,992.1807
2.868658543,452.533,194.1414,37.58562,0.2242355,0.2807517,1.954152,7.399201,32.76526,4.153391,992.1807
2.876260281,381.9571,170.7142,66.32405,0.05455139,-0.1782359,1.432196,7.399201,32.76526,4.153391,992.179
2.883862972,177.7602,158.1132,72.26782,-1.171959,0.7798578,3.049184,7.399201,32.76526,4.153391,992.179
2.891465664,-11.99799,54.5836,49.28933,-1.471594,0.4054261,0.5856166,8.14566,32.89842,-2.991861,992.179
2.899068356,-243.7034,-28.12173,26.24956,-1.359101,0.02090759,1.479997,8.14566,32.89842,-2.991861,992.179
2.906670570,-324.7349,-60.89622,-25.03843,-0.7597867,-0.5867448,0.599615,8.14566,32.89842,-2.991861,992.179
2.914272785,-189.8068,-136.739,-54.63473,-0.2171808,-1.738114,-0.550722,8.14566,32.89842,-2.991861,992.179
2.921875477,-57.49266,-167.2063,-83.00551,0.1169177,-1.406163,0.1693233,8.14566,32.89842,-2.991861,992.179
2.929477692,36.73295,-83.79105,-85.21144,0.6180937,-0.9951249,0.9507915,8.14566,32.89842,-2.991861,992.179
2.937080383,49.3669,8.379839,-35.08769,0.7695508,-0.8596517,0.7838037,8.14566,32.89842,-2.991861,992.179
2.944683075,41.40066,44.8814,22.573,0.335123,-0.6526048,0.9354664,10.44349,33.25663,-3.412451,992.179
2.954819679,-4.467414,33.81853,35.31841,-0.02916946,-0.6267393,0.4986936,10.44349,33.25663,-3.412451,992.1772
2.962421417,-10.00644,-5.87766,9.276117,-0.09255005,-0.5791515,0.5001302,10.44349,33.25663,-3.412451,992.1772
2.970024109,-9.321837,-8.894808,3.332348,0.2307213,-0.8566852,0.6440545,10.44349,33.25663,-3.412451,992.1772
2.977626801,-4.591886,12.28438,19.5092,0.1189831,-0.8129666,0.6440943,10.44349,33.25663,-3.412451,992.1772
2.985229015,10.59375,27.8434,21.22493,-0.09765431,-0.8854769,0.5578811,10.44349,33.25663,-3.412451,992.1772
2.992831707,23.72558,29.55903,22.14407,-0.2731951,-0.8192235,0.6239177,8.138508,34.02715,-2.975765,992.1772
3.000433922,23.91229,21.2175,14.05564,-0.3642703,-0.6619923,0.6384341,8.138508,34.02715,-2.975765,992.1772
3.008036136,9.784676,0.1566343,-0.5893148,-0.2890222,-0.6778493,0.7097567,8.138508,34.02715,-2.975765,992.1772
3.015638828,-1.168895,-10.078,-2.856526,-0.1027619,-0.7282264,0.7426377,8.138508,34.02715,-2.975765,992.1772
3.023241520,2.751985,-1.736477,-3.469286,-0.05882663,-0.7860781,0.7182932,8.138508,34.02715,-2.975765,992.1772
3.030844211,5.303669,-0.7307619,-4.633529,-0.1270987,-0.7130044,0.6880441,8.138508,34.02715,-2.975765,992.1772
3.038446426,0.200301,-8.953967,-7.881156,-0.04751664,-0.7315145,0.7095312,9.291649,33.63745,-2.9706,992.1755
3.048583030,3.312111,-6.469257,-6.165429,0.01312346,-0.7374331,0.6637805,9.291649,33.63745,-2.9706,992.1755
3.056185245,4.743543,-3.45211,-3.836942,0.03433716,-0.7146512,0.6947365,9.291649,33.63745,-2.9706,992.1755
3.063787937,2.254095,0.03831485,0.3911008,0.007174835,-0.7282832,0.6954343,9.291649,33.63745,-2.9706,992.1755
3.071390152,3.561056,1.044031,1.800448,-0.02177589,-0.7269878,0.66223,9.291649,33.63745,-2.9706,992.1755
3.078992843,2.565276,3.46958,4.067659,-0.03789844,-0.7233998,0.6961867,9.291649,33.63745,-2.9706,992.1737
3.086595535,1.009372,4.002018,4.619143,-0.1010649,-0.7492979,0.6904001,8.902,34.40331,-3.410395,992.1737
3.094197273,1.880678,1.398989,2.719588,-0.124984,-0.7521921,0.6894345,8.902,34.40331,-3.410395,992.1737
3.101799965,1.880678,-0.4941229,1.494068,-0.09693763,-0.7309747,0.7024559,8.902,34.40331,-3.410395,992.1737
3.109402656,-0.0486438,-0.9082411,1.126413,-0.06687234,-0.7440197,0.7102336,8.902,34.40331,-3.410395,992.1737
3.117005348,0.4492458,0.1566343,1.126413,-0.1023115,-0.7637475,0.6827832,8.902,34.40331,-3.410395,992.1737
3.124607563,1.19608,-2.564714,-0.7731428,-0.0813933,-0.7561377,0.6887112,8.902,34.40331,-3.410395,992.1737
3.132209778,1.569497,-2.623874,-0.7731428,-0.04953564,-0.7594423,0.6948041,8.902,34.40331,-3.410395,992.1737
3.139811992,2.565276,-1.381519,-0.09910705,-0.05249727,-0.7606783,0.6735278,9.289265,34.01369,-2.965235,992.1737
3.149948597,1.756206,0.2157941,0.5136527,-0.03641071,-0.6965833,0.6838367,9.289265,34.01369,-2.965235,992.1737
3.157551288,0.7604268,0.3932734,0.5136527,-0.09000239,-0.737942,0.6906602,9.289265,34.01369,-2.965235,992.1737
3.165153980,1.382789,-2.860513,-1.079523,-0.07097393,-0.7417666,0.6421971,9.289265,34.01369,-2.965235,992.1737
3.172756672,1.942915,-0.4941229,-0.6505908,-0.07184757,-0.7194163,0.6345689,9.289265,34.01369,-2.965235,992.1737
3.180358887,2.876457,-1.973117,-1.324627,-0.06991442,-0.7404116,0.6886004,9.289265,34.01369,-2.965235,992.1737
3.187961101,4.058945,-2.387235,-1.447178,-0.06708102,-0.7362878,0.6737245,8.904385,34.02707,-3.41576,992.1737
3.195563793,5.490378,-1.2632,-0.7118668,-0.055278,-0.7081922,0.6908402,8.904385,34.02707,-3.41576,992.1737
3.203166008,4.30789,-0.7899216,0.1459969,-0.04816332,-0.6936294,0.6989247,8.904385,34.02707,-3.41576,992.1737
3.210768699,0.6981906,0.03831485,1.555344,-0.04574086,-0.7247791,0.6783033,8.904385,34.02707,-3.41576,992.1737
3.218375206,1.631734,1.931427,2.22938,-0.05914602,-0.7424678,0.6774032,8.904385,34.02707,-3.41576,992.1737
3.225973129,3.125402,2.404705,2.106828,-0.08875798,-0.7248064,0.6876162,8.904385,34.02707,-3.41576,992.1737
3.233575821,1.258316,0.9848709,1.861724,-0.0696134,-0.7288034,0.6898671,8.904385,34.02707,-3.41576,992.1737
3.243712425,1.133844,2.463865,3.209796,-0.05694652,-0.7582989,0.6697394,9.292738,33.27009,-3.422981,992.1755
3.251315117,4.619071,3.410421,4.190212,-0.03930192,-0.7290663,0.6830019,9.292738,33.27009,-3.422981,992.1755
3.258917808,3.374347,5.481012,7.25401,0.008047755,-0.7197553,0.7111102,9.292738,33.27009,-3.422981,992.1755
3.266520023,1.009372,7.669922,10.13398,0.0238838,-0.7345864,0.685074,9.292738,33.27009,-3.422981,992.1755
3.274122238,3.374347,10.56875,11.29823,-0.001879669,-0.7151878,0.6793799,9.292738,33.27009,-3.422981,992.1755
3.281724453,2.565276,12.04774,10.86929,-0.06113411,-0.677936,0.7003394,9.292738,33.27009,-3.422981,992.1737
3.289327144,-3.160454,10.50959,10.80802,-0.1318362,-0.7240683,0.6752127,8.908062,33.64194,-2.97411,992.1737
3.296929836,-1.231132,4.948574,6.273595,-0.09811167,-0.690687,0.6923965,8.908062,33.64194,-2.97411,992.1737
3.304532528,-4.654122,8.02488,7.315286,-0.1100809,-0.676425,0.6937709,8.908062,33.64194,-2.97411,992.1737
3.312134266,-6.210027,5.421852,4.680419,-0.1270757,-0.6835775,0.696054,8.908062,33.64194,-2.97411,992.1737
3.319736957,-8.699475,3.232941,3.393624,-0.09267442,-0.686031,0.7523967,8.908062,33.64194,-2.97411,992.1737
3.327340126,-12.12247,4.534456,3.4549,-0.1360807,-0.7042692,0.6723592,8.908062,33.64194,-2.97411,992.1737
3.337476253,-13.36719,2.049746,0.5136527,-0.1117648,-0.7189388,0.7216539,9.295122,32.89385,-3.428347,992.1737
3.345078468,-13.61613,1.635628,0.2072728,-0.1253605,-0.6950247,0.7228012,9.295122,32.89385,-3.428347,992.1737
3.352681160,-19.77752,-3.097152,0.02344491,-0.04122647,-0.725736,0.7217374,9.295122,32.89385,-3.428347,992.1737
3.360283851,-20.71106,0.5707526,1.861724,-0.0471413,-0.7476393,0.7588638,9.295122,32.89385,-3.428347,992.172
3.367885589,-20.58659,1.517309,2.106828,-0.1541354,-0.7343707,0.6880574,9.295122,32.89385,-3.428347,992.172
3.375488281,-24.19629,-2.032276,-0.344211,-0.1839418,-0.758872,0.7387169,9.295122,32.89385,-3.428347,992.172
3.383090973,-26.99692,-7.711613,-3.40801,-0.1282896,-0.7894979,0.6865436,9.295122,32.89385,-3.428347,992.172
3.390693664,-24.63194,-8.480689,-4.817357,-0.08515262,-0.7878957,0.742481,9.675234,33.63297,-2.967091,992.172
3.398295879,-24.19629,-4.871944,-5.491393,-0.15313,-0.7596275,0.7332865,9.675234,33.63297,-2.967091,992.172
3.405898094,-25.87667,-9.368086,-10.02582,-0.2312311,-0.7001263,0.800772,9.675234,33.63297,-2.967091,992.172
3.413500309,-26.81021,-10.19632,-15.72448,-0.27652,-0.5842472,0.8652711,9.675234,33.63297,-2.967091,992.172
3.421104908,-51.51798,-24.98626,-26.93799,-0.1090534,-0.580898,0.9812403,9.675234,33.63297,-2.967091,992.172
3.431239605,-82.01372,-22.67903,-22.52612,-0.0313352,-0.717299,0.8330235,9.675234,33.63297,-2.967091,992.172
3.438842296,-75.85233,-14.51498,-25.58991,-0.09614065,-0.740548,0.7698296,9.68259,32.86271,-2.083786,992.1703
3.446444988,-79.83545,-16.76305,-26.44778,-0.1565272,-0.6019235,0.8112987,9.68259,32.86271,-2.083786,992.1703
3.454046726,-100.1867,-24.80878,-30.49199,-0.08705417,-0.5659153,0.8685297,9.68259,32.86271,-2.083786,992.1703
3.461649418,-121.9694,-23.32979,-28.40861,0.001065806,-0.6375369,0.818087,9.68259,32.86271,-2.083786,992.1703
3.469252109,-131.5537,-17.29549,-24.48695,-0.01259725,-0.6754568,0.7717397,9.68259,32.86271,-2.083786,992.1703
3.476854324,-140.7647,-15.46154,-21.91336,-0.04654009,-0.6679718,0.738712,9.68259,32.86271,-2.083786,992.1703
3.484457016,-155.5769,-14.57414,-20.74911,-0.02251381,-0.7357883,0.7049938,9.300711,33.57527,0.1585197,992.1686
3.492059231,-161.925,-13.56843,-15.72448,0.01522666,-0.7474527,0.655785,9.300711,33.57527,0.1585197,992.1686
3.499661446,-167.9619,-11.97111,-14.19258,0.07445401,-0.7404317,0.7296846,9.300711,33.57527,0.1585197,992.1686
3.507264137,-180.0357,-4.871944,-9.780711,0.08218238,-0.7710905,0.679594,9.300711,33.57527,0.1585197,992.1686
3.514866829,-187.4418,3.824539,-4.633529,0.004334301,-0.7553445,0.5382367,9.300711,33.57527,0.1585197,992.1686
3.525003433,-196.4038,3.942858,-3.775666,0.02611475,-0.7982481,0.5583069,9.300711,33.57527,0.1585197,992.1709
3.532606125,-203.4988,8.793957,-1.814834,0.06559124,-0.7963392,0.5104111,9.300711,33.57527,0.1585197,992.1709
3.540208340,-212.0874,13.64506,2.413208,0.07300091,-0.8354198,0.4745939,8.170258,32.72964,5.501461,992.1709
3.547810554,-220.6759,21.04003,7.192734,0.05512072,-0.8836762,0.4347539,8.170258,32.72964,5.501461,992.1709
3.555412769,-220.8627,24.35297,7.315286,0.0104328,-0.8883971,0.3183609,8.170258,32.72964,5.501461,992.1709
3.563015461,-220.6759,23.22894,7.192734,0.01571053,-0.9239336,0.2299916,8.170258,32.72964,5.501461,992.1726
3.570618153,-222.3563,21.5133,7.56039,0.02481658,-0.9999343,0.2439286,8.170258,32.72964,5.501461,992.1726
3.578220844,-220.3648,20.68507,7.805494,-0.03976486,-1.016028,0.1147441,8.170258,32.72964,5.501461,992.1726
3.585822582,-204.4323,28.19835,7.192734,-0.157023,-1.032533,0.04657792,8.194239,31.48542,11.29659,992.1726
3.593425274,-185.5747,28.13919,-0.8956947,-0.09055785,-1.065892,-0.001836287,8.194239,31.48542,11.29659,992.1726
3.601027965,-171.3849,19.50187,-4.265873,-0.09601269,-1.058084,0.02205255,8.194239,31.48542,11.29659,992.1709
3.608630180,-162.1117,15.24237,-8.064984,-0.07313735,-1.053093,0.009067943,8.194239,31.48542,11.29659,992.1709
3.618766785,-156.9461,15.18321,-9.719436,-0.07264514,-1.095904,-0.08575471,8.194239,31.48542,11.29659,992.1709
3.626369476,-136.4704,11.75194,-12.1092,-0.1271812,-1.097803,-0.2112209,8.194239,31.48542,11.29659,992.1709
3.633971214,-109.4599,7.492443,-17.74659,-0.09003645,-1.038327,-0.2223521,8.223682,29.18406,16.62949,992.1709
3.641573906,-93.09176,7.078325,-19.15594,-0.02449302,-1.018153,-0.07036199,8.223682,29.18406,16.62949,992.1675
3.649176598,-92.65611,8.971437,-16.52107,-0.01009497,-1.01157,-0.144624,8.223682,29.18406,16.62949,992.1675
3.656779289,-79.95992,8.02488,-17.74659,-0.0477315,-1.020338,-0.1993158,8.223682,29.18406,16.62949,992.1675
3.664381981,-62.7205,7.492443,-18.97211,-0.02201345,-1.041706,-0.2284513,8.223682,29.18406,16.62949,992.1675
3.671984196,-48.2817,4.238657,-17.86914,0.0009855751,-1.037811,-0.1941273,8.223682,29.18406,16.62949,992.1675
3.679586410,-38.01273,0.5707526,-16.58235,0.01505855,-1.03564,-0.2274448,8.223682,29.18406,16.62949,992.1675
3.687188625,-26.74797,-1.499839,-17.01128,0.009431208,-1.048073,-0.2108438,7.863464,26.8689,19.7229,992.1675
3.694791317,-9.508546,-0.2574839,-18.4819,0.01534511,-1.053063,-0.2274153,7.863464,26.8689,19.7229,992.1675
3.702394009,7.232991,2.996302,-18.35935,0.01811575,-1.065342,-0.172194,7.863464,26.8689,19.7229,992.1675
3.712530613,18.2488,-2.032276,-15.23427,0.04360303,-1.058537,-0.09722725,7.863464,26.8689,19.7229,992.1675
3.720133305,24.28571,-4.812785,-9.96454,0.06492092,-1.117938,-0.1867503,7.863464,26.8689,19.7229,992.1675
3.727735043,36.91965,-12.44439,-3.836942,0.1173626,-1.155498,-0.1946543,7.863464,26.8689,19.7229,992.1698
3.735337734,49.86478,-16.17146,4.680419,0.1673191,-1.188916,-0.189884,7.874295,25.35504,20.14846,992.1698
3.742940426,59.57363,-15.10658,16.13903,0.1987711,-1.291921,-0.2235737,7.874295,25.35504,20.14846,992.1698
3.750542641,72.89218,-17.70961,31.5193,0.2309248,-1.417251,-0.3264366,7.874295,25.35504,20.14846,992.1698
3.758145332,96.60417,-13.74591,45.85788,0.2905695,-1.606134,-0.4131651,7.874295,25.35504,20.14846,992.1698
3.765747547,139.4227,-6.114299,63.44408,0.2942352,-1.742391,-0.6509888,7.874295,25.35504,20.14846,992.1681
3.773349762,209.1895,5.244373,78.33414,0.319161,-1.50589,-0.6690753,7.874295,25.35504,20.14846,992.1681
3.780952454,273.106,20.27095,76.80224,0.2379141,-0.8393247,-0.6060963,7.874295,25.35504,20.14846,992.1681
3.788555145,355.1956,25.47701,46.96085,-0.4329408,0.3346255,-0.8724765,6.714681,25.78916,17.90821,992.1681
3.796157837,481.535,55.1752,-1.447178,-0.06619122,-0.2618022,0.1861067,6.714681,25.78916,17.90821,992.1681
3.806294441,270.3676,52.80881,66.01767,-1.221789,0.8126213,1.344111,6.714681,25.78916,17.90821,992.1681
3.813896656,37.72873,-66.69388,55.60076,-0.541791,-0.3637312,0.43131,6.714681,25.78916,17.90821,992.1681
3.821498871,39.16016,-64.97825,34.03161,-0.4314841,-1.337983,-0.2725309,6.714681,25.78916,17.90821,992.1681
3.829103947,223.0059,-95.91879,7.192734,-0.3905707,-1.68738,-0.2928471,6.714681,25.78916,17.90821,992.1681
3.836703777,337.0226,-51.25319,-31.10475,-0.1347872,-1.107395,0.2542002,8.203775,29.98044,11.27512,992.1681
3.844306469,375.3601,-10.84708,-33.98472,-0.09603094,-0.4166942,0.1377377,8.203775,29.98044,11.27512,992.1664
3.851909161,350.1544,29.85483,-33.43324,-0.547235,-0.5459789,0.8125379,8.203775,29.98044,11.27512,992.1664
3.859510899,311.1323,35.59332,-14.80534,-0.1384943,-0.5876127,0.6696011,8.203775,29.98044,11.27512,992.1664
3.867113590,246.6557,-87.39979,-17.44021,0.1618994,-0.4382711,1.158465,8.203775,29.98044,11.27512,992.1664
3.874716282,191.7633,-71.48582,-4.572253,0.6249599,-0.5632994,1.073086,8.203775,29.98044,11.27512,992.1664
3.882318497,186.0998,-25.5187,27.04615,0.9761243,-0.7790929,1.240746,8.930954,32.76508,3.273397,992.1681
3.889921188,192.6969,67.95371,82.19453,0.4951383,-0.8230894,0.595788,8.930954,32.76508,3.273397,992.1681
3.900057793,228.1093,93.3924,109.5236,0.08356125,-0.7803162,0.5721161,8.930954,32.76508,3.273397,992.1681
3.907660007,243.9795,87.41727,100.2097,-0.4918834,-0.5985497,1.778034,8.930954,32.76508,3.273397,992.1681
3.915262222,286.6113,124.9837,70.06188,-0.02790826,0.07443477,0.9704759,8.930954,32.76508,3.273397,992.1681
3.922864914,132.8879,-35.69417,40.52687,0.08220138,0.2765986,2.051583,8.930954,32.76508,3.273397,992.1681
3.930467606,-17.8482,82.03373,21.22493,-0.7085212,0.05230843,1.981114,8.930954,32.76508,3.273397,992.1681
3.938070297,-156.6971,115.6365,5.170627,-1.630434,-0.2485059,1.074868,8.910242,32.90722,-3.878874,992.1681
3.945672035,-146.4904,-19.42524,0.08472089,-1.389468,-0.7649663,-0.6033682,8.910242,32.90722,-3.878874,992.1681
3.953274727,-58.11502,-147.8611,-57.63725,-0.5659664,-0.7312899,0.4773866,8.910242,32.90722,-3.878874,992.1681
3.960877419,-43.92516,-118.6953,-81.77999,0.2377895,-0.7800736,0.8691849,8.910242,32.90722,-3.878874,992.1681
3.968479633,-48.21946,-65.27404,-52.61262,0.5432305,-0.9544065,1.015846,8.910242,32.90722,-3.878874,992.1698
3.976082325,-35.58551,4.061178,-2.18249,0.2311512,-0.8850282,0.6278597,8.910242,32.90722,-3.878874,992.1698
3.983685017,-5.712138,33.16777,4.680419,-0.07287902,-0.8439754,0.5695077,11.14803,33.23952,-2.959,992.1698
3.993821621,3.436583,-4.753625,-11.12878,-0.04562274,-0.6544309,0.5922181,11.14803,33.23952,-2.959,992.1698
4.001423359,-17.28807,-16.94053,-8.310088,0.2440386,-0.7026629,0.7335111,11.14803,33.23952,-2.959,992.1698
4.009026050,-24.32076,-7.238334,6.763803,0.3880929,-0.8416954,0.705292,11.14803,33.23952,-2.959,992.1698
4.016628742,-13.86508,12.16606,23.55342,0.259794,-0.8600054,0.4979996,11.14803,33.23952,-2.959,992.1698
4.024230957,10.3448,23.52473,31.82568,0.09864616,-0.8995939,0.5356403,11.14803,33.23952,-2.959,992.1698
4.031833648,20.30259,27.66592,39.669,-0.05891188,-0.8072768,0.5240455,9.295328,33.25232,-2.528948,992.1698
4.039435863,17.5642,27.72508,39.30135,-0.2416682,-0.7859268,0.5324233,9.295328,33.25232,-2.528948,992.1698
4.047042370,22.7298,28.96743,33.72523,-0.4239345,-0.7465119,0.4552886,9.295328,33.25232,-2.528948,992.1698
4.054640770,32.31418,20.03431,17.36455,-0.5506269,-0.6816906,0.4844231,9.295328,33.25232,-2.528948,992.1698
4.062243461,27.83317,-3.215471,-3.71439,-0.4797755,-0.6341395,0.5868719,9.295328,33.25232,-2.528948,992.1698
4.069846153,13.58108,-18.36037,-10.39347,-0.2441764,-0.6942884,0.7410682,9.295328,33.25232,-2.528948,992.1698
4.077447891,12.83425,-9.723044,-11.80282,-0.1426279,-0.7426011,0.7433563,9.295328,33.25232,-2.528948,992.1698
4.087584972,11.34058,-7.711613,-12.53813,-0.03790953,-0.64657,0.8189416,10.0612,33.25223,-2.968945,992.1716
4.095187187,-0.9199505,-6.705896,-9.719436,0.05523255,-0.7465778,0.8373026,10.0612,33.25223,-2.968945,992.1716
4.102789402,-1.044423,3.5879,0.4523768,-0.08525004,-0.7578313,0.7012383,10.0612,33.25223,-2.968945,992.1716
4.110392093,4.992488,1.16235,-2.243766,-0.1737344,-0.7394029,0.6348547,10.0612,33.25223,-2.968945,992.1716
4.117994785,3.063166,-4.576146,-5.001185,-0.08993593,-0.7060938,0.7359266,10.0612,33.25223,-2.968945,992.1716
4.125597477,0.9471353,-1.913957,-1.87611,-0.02732641,-0.7715852,0.6953845,10.0612,33.25223,-2.968945,992.1716
4.133199215,4.992488,1.10319,0.5136527,-0.05960857,-0.7390826,0.7142032,10.05991,33.26112,-3.41596,992.1716
4.140801906,3.747764,1.576468,1.739172,-0.08058162,-0.7106675,0.7299818,10.05991,33.26112,-3.41596,992.1716
4.148404598,0.9471353,1.458149,2.413208,-0.09114935,-0.7251374,0.7093518,10.05991,33.26112,-3.41596,992.1716
4.156006813,0.3247734,1.28067,2.719588,-0.09252734,-0.730055,0.7130927,10.05991,33.26112,-3.41596,992.1716
4.163609505,0.2625372,2.641344,2.53576,-0.1246773,-0.7106233,0.6948608,10.05991,33.26112,-3.41596,992.1716
4.171211719,-0.9821868,0.7482318,1.555344,-0.1399712,-0.7004824,0.7101466,10.05991,33.26112,-3.41596,992.1733
4.181348324,-4.405178,-1.499839,0.3298248,-0.139051,-0.7301481,0.6847382,10.76077,33.62914,-3.404161,992.1733
4.188950538,-2.600328,-0.7899216,-0.344211,-0.1390633,-0.7291993,0.686212,10.76077,33.62914,-3.404161,992.1733
4.196553230,-3.22269,-1.558998,-1.631006,-0.1527993,-0.7283478,0.6737186,10.76077,33.62914,-3.404161,992.1733
4.204155922,-2.911509,-1.795637,-2.18249,-0.1371067,-0.7340247,0.6508189,10.76077,33.62914,-3.404161,992.1733
4.211758613,-1.355604,-1.618158,-2.79525,-0.1322972,-0.7264347,0.6703222,10.76077,33.62914,-3.404161,992.1776
4.219360351,-1.41784,-1.736477,-3.346734,-0.1464622,-0.7263522,0.6790638,10.76077,33.62914,-3.404161,992.1776
4.226963043,-0.9821868,-2.623874,-4.327149,-0.1336044,-0.7348202,0.6802523,10.76077,33.62914,-3.404161,992.1776
4.234565735,0.5114819,-3.392951,-5.368841,-0.1115364,-0.7122483,0.654202,10.76553,32.87665,-3.414892,992.1776
4.242167950,-1.355604,-2.801353,-4.633529,-0.1152545,-0.7186521,0.6941393,10.76553,32.87665,-3.414892,992.1776
4.249770641,-1.542313,-4.457826,-4.817357,-0.1041809,-0.739997,0.6776097,10.76553,32.87665,-3.414892,992.1716
4.257373333,-1.41784,-3.62959,-4.694805,-0.08913406,-0.7338081,0.6719265,10.76553,32.87665,-3.414892,992.1716
4.264975071,-2.662564,-2.742193,-3.591838,-0.09884351,-0.7356961,0.6902635,10.76553,32.87665,-3.414892,992.1716
4.275111675,-3.284926,-2.032276,-3.162906,-0.09146772,-0.7710627,0.6666186,10.76553,32.87665,-3.414892,992.1716
4.282714367,0.6359544,-1.08572,-2.856526,-0.1136875,-0.7284316,0.6668303,10.06229,32.88487,-3.421328,992.1716
4.290317058,1.19608,-1.440679,-2.79525,-0.1143722,-0.7132668,0.6908952,10.06229,32.88487,-3.421328,992.1716
4.297919273,-0.6710058,-2.564714,-3.224182,-0.08870768,-0.7241888,0.7146821,10.06229,32.88487,-3.421328,992.1716
4.305521965,-1.231132,-2.919672,-3.40801,-0.07552186,-0.754717,0.7003224,10.06229,32.88487,-3.421328,992.1716
4.313124180,-0.4842972,-3.156312,-1.814834,-0.07657959,-0.7476864,0.7164485,10.06229,32.88487,-3.421328,992.1716
4.320726394,-0.5465334,-0.7307619,-1.324627,-0.1145882,-0.7315105,0.6788291,10.06229,32.88487,-3.421328,992.1716
4.328329086,-1.542313,-2.742193,-2.305042,-0.1080381,-0.7438969,0.6736562,10.05882,33.62848,-2.963579,992.1716
4.335931778,-1.231132,-2.209755,-2.059938,-0.109009,-0.742628,0.6862512,10.05882,33.62848,-2.963579,992.1716
4.343534469,-0.1731162,-1.736477,-2.48887,-0.1248235,-0.7336547,0.6788057,10.05882,33.62848,-2.963579,992.1716
4.351136207,-0.1731162,-2.801353,-3.836942,-0.1263905,-0.7269679,0.6833317,10.05882,33.62848,-2.963579,992.1716
4.358738899,-1.480076,-4.280347,-4.204597,-0.1242013,-0.7392101,0.6974978,10.05882,33.62848,-2.963579,992.1716
4.368875503,-1.480076,-5.108583,-4.939909,-0.09843086,-0.7330734,0.6753561,10.05882,33.62848,-2.963579,992.1716
4.376477718,-1.853493,-4.398666,-3.959493,-0.07696871,-0.7248613,0.7102802,10.05882,33.62848,-2.963579,992.1716
4.384080410,-3.658343,-3.45211,-3.10163,-0.08262832,-0.7406579,0.6876681,10.05991,33.26112,-3.41596,992.1716
4.391683102,-3.347162,-3.866229,-2.917802,-0.08738399,-0.7507418,0.6738962,10.05991,33.26112,-3.41596,992.1716
4.399285793,-2.164675,-2.683033,-2.550146,-0.08155303,-0.7464559,0.6884802,10.05991,33.26112,-3.41596,992.1716
4.406887531,-2.538092,-1.558998,-2.243766,-0.09231775,-0.7488375,0.6686479,10.05991,33.26112,-3.41596,992.1759
4.414490223,-2.351383,-1.795637,-2.243766,-0.1079482,-0.748791,0.6778761,10.05991,33.26112,-3.41596,992.1759
4.422092914,-2.040202,-1.854797,-2.979078,-0.1178053,-0.7437122,0.6814204,10.05991,33.26112,-3.41596,992.1759
4.429695129,-1.853493,-2.801353,-3.469286,-0.102193,-0.7427787,0.6712517,10.05991,33.26112,-3.41596,992.1759
4.437297821,-1.480076,-3.156312,-3.162906,-0.07106476,-0.7289145,0.6961482,10.05991,33.26112,-3.41596,992.1759
4.444900036,-2.475856,-0.7899216,-1.569731,-0.08558858,-0.7401339,0.6799625,10.05991,33.26112,-3.41596,992.1759
4.452502251,-1.729021,-1.854797,-1.998662,-0.09576353,-0.7470158,0.6720873,10.05991,33.26112,-3.41596,992.1742
4.460104942,-1.355604,-1.08572,-1.87611,-0.109607,-0.7380839,0.670914,10.05991,33.26112,-3.41596,992.1742
4.470241547,-1.91573,-2.742193,-2.48887,-0.08853265,-0.7401373,0.6756244,10.05991,33.26112,-3.41596,992.1742
4.477844238,-1.542313,-1.618158,-2.18249,-0.08454248,-0.7453355,0.6720955,10.44956,32.49526,-2.976166,992.1742
4.485446930,-1.106659,-1.736477,-2.121214,-0.08952918,-0.7382908,0.6809889,10.44956,32.49526,-2.976166,992.1742
4.493048668,-1.41784,-1.973117,-1.998662,-0.08597378,-0.7486455,0.6638024,10.44956,32.49526,-2.976166,992.1742
4.500651359,-1.480076,-1.913957,-1.447178,-0.0665388,-0.7378855,0.6857571,10.44956,32.49526,-2.976166,992.1742
4.508254051,-0.9821868,-0.4941229,-0.160383,-0.0689275,-0.7408817,0.6890681,10.44956,32.49526,-2.976166,992.1742
4.515856266,-0.7954782,-0.0208449,-0.221659,-0.09243899,-0.7384756,0.690654,10.44956,32.49526,-2.976166,992.1742
4.523458958,-1.791257,-0.3758034,-0.6505908,-0.1119912,-0.7397788,0.6858516,10.44956,32.49526,-2.976166,992.1742
4.531061649,-1.729021,-1.20404,-1.202075,-0.1022087,-0.7400448,0.6843646,10.76315,33.25289,-3.409527,992.1742
4.538663387,-2.289147,-1.026561,-1.508455,-0.1075887,-0.7397017,0.6868058,10.76315,33.25289,-3.409527,992.1742
4.546266079,-2.289147,-2.091436,-2.79525,-0.1212281,-0.7459883,0.664949,10.76315,33.25289,-3.409527,992.1742
4.553868770,-2.413619,-2.801353,-3.71439,-0.1030953,-0.7462913,0.6793749,10.76315,33.25289,-3.409527,992.1742
4.564005375,-2.911509,-2.801353,-4.143322,-0.09932822,-0.7379374,0.6757157,10.76315,33.25289,-3.409527,992.1742
4.571607590,-2.973745,-3.274631,-3.836942,-0.07513013,-0.7515419,0.6801161,10.76315,33.25289,-3.409527,992.1725
4.579210281,-2.351383,-1.973117,-3.836942,-0.07253601,-0.762004,0.6696924,10.0612,33.25223,-2.968945,992.1725
4.586812496,-1.355604,-1.973117,-3.836942,-0.08542432,-0.7516071,0.6690371,10.0612,33.25223,-2.968945,992.1725
4.594417095,-1.106659,-2.387235,-3.959493,-0.08645914,-0.7486742,0.6652523,10.0612,33.25223,-2.968945,992.1725
4.602017403,-1.231132,-2.328075,-3.71439,-0.06575761,-0.7570956,0.6751118,10.0612,33.25223,-2.968945,992.1725
4.609620094,-0.6710058,-0.3758034,-2.856526,-0.09075304,-0.7555118,0.6631561,10.0612,33.25223,-2.968945,992.1708
4.617222786,-0.6710058,-0.9082411,-3.285458,-0.104033,-0.752709,0.650229,10.0612,33.25223,-2.968945,992.1708
4.624824524,-1.791257,-0.1391644,-2.979078,-0.07815347,-0.7467075,0.6759039,10.0612,33.25223,-2.968945,992.1708
4.632427215,-4.093997,-0.0208449,-1.692282,-0.06007291,-0.7471755,0.6656909,10.44349,33.25663,-3.412451,992.1708
4.640029907,-4.156233,2.345545,0.4523768,-0.05739731,-0.7611616,0.6658021,10.44349,33.25663,-3.412451,992.1708
4.647632122,-3.035981,2.759663,1.494068,-0.03517381,-0.7460402,0.6545318,10.44349,33.25663,-3.412451,992.1708
4.657768726,-2.413619,5.717651,5.599559,-0.0299464,-0.7654045,0.6627069,10.44349,33.25663,-3.412451,992.1673
4.665371418,0.200301,8.793957,6.94763,-0.06076351,-0.7668303,0.6497254,10.44349,33.25663,-3.412451,992.1673
4.672974110,3.249875,8.557318,7.682942,-0.06756958,-0.7358578,0.6771184,10.44349,33.25663,-3.412451,992.1673
4.680575848,1.880678,8.853117,8.050598,-0.06213964,-0.7360234,0.6983505,10.4437,33.6151,-2.513052,992.1673
4.688178539,0.6981906,8.912276,9.827601,-0.07626968,-0.7414273,0.6823146,10.4437,33.6151,-2.513052,992.1673
4.695781231,2.316332,9.681354,10.50164,-0.07605549,-0.7558157,0.6722795,10.4437,33.6151,-2.513052,992.1656
4.703383446,3.872236,10.74623,11.66588,-0.0823743,-0.7556989,0.6906577,10.4437,33.6151,-2.513052,992.1656
4.710986137,4.805779,12.1069,11.84971,-0.1026802,-0.7436811,0.6654333,10.4437,33.6151,-2.513052,992.1656
4.718588352,6.237212,9.208076,9.827601,-0.1278023,-0.7294979,0.6895499,10.4437,33.6151,-2.513052,992.1656
4.726190567,5.677086,9.858832,7.682942,-0.1841853,-0.6971605,0.646129,10.44241,33.62399,-2.96007,992.1656
4.733793259,3.561056,0.3932734,5.109351,-0.08570998,-0.7284456,0.7116638,10.44241,33.62399,-2.96007,992.1656
4.741395950,1.382789,4.830255,6.702527,-0.09330682,-0.7434959,0.7030853,10.44241,33.62399,-2.96007,992.1656
4.751532555,2.814221,5.066894,6.579975,-0.1261656,-0.7427389,0.6679472,10.44241,33.62399,-2.96007,992.1656
4.759135246,2.627513,3.46958,5.844663,-0.1026659,-0.7419899,0.6843156,10.44241,33.62399,-2.96007,992.1656
4.766737461,2.129623,3.942858,6.151043,-0.1035794,-0.7463263,0.6813076,10.44241,33.62399,-2.96007,992.1656
4.774339676,3.00093,5.362692,6.579975,-0.1124106,-0.7450166,0.6784713,10.44241,33.62399,-2.96007,992.1639
4.781942368,3.934473,4.593616,5.967215,-0.1120286,-0.7391388,0.6737925,10.06359,32.87599,-2.97431,992.1639
4.789544582,3.498819,2.759663,6.273595,-0.1130278,-0.7346271,0.6975815,10.06359,32.87599,-2.97431,992.1639
4.797148704,2.627513,4.002018,5.599559,-0.1029027,-0.7323417,0.6493053,10.06359,32.87599,-2.97431,992.1639
4.804749966,3.312111,1.931427,6.763803,-0.1266536,-0.7401025,0.6878217,10.06359,32.87599,-2.97431,992.1639
4.812351704,2.254095,3.292101,5.844663,-0.1389601,-0.7368148,0.6763531,10.06359,32.87599,-2.97431,992.1639
4.819954395,1.133844,2.523024,4.496592,-0.1207482,-0.7468147,0.6547822,10.06359,32.87599,-2.97431,992.1639
4.827557087,1.382789,0.6890721,4.251488,-0.1156095,-0.7295328,0.6740533,10.76703,33.22624,-2.068476,992.1639
4.835159779,3.187638,4.948574,3.087244,-0.07737514,-0.7301677,0.7082115,10.76703,33.22624,-2.068476,992.1639
4.845295906,3.436583,5.185213,5.783387,-0.1169644,-0.7019309,0.7085872,10.76703,33.22624,-2.068476,992.1639
4.852898598,2.067387,3.46958,6.396147,-0.1310253,-0.7068174,0.727343,10.76703,33.22624,-2.068476,992.1639
4.860500812,-1.480076,3.410421,4.986799,-0.1410233,-0.7287741,0.6876784,10.76703,33.22624,-2.068476,992.1639
4.868103027,-0.6710058,2.286385,4.619143,-0.1272544,-0.7328932,0.6909091,10.76703,33.22624,-2.068476,992.1639
4.875705719,-1.293368,2.345545,4.680419,-0.118532,-0.7292088,0.6817995,11.14803,33.23952,-2.959,992.1639
4.883308411,-1.604549,1.872267,4.741695,-0.09672141,-0.7458156,0.6899938,11.14803,33.23952,-2.959,992.1639
4.890911102,-0.6087696,2.049746,5.783387,-0.1407562,-0.7134519,0.7011175,11.14803,33.23952,-2.959,992.1622
4.898513317,-2.351383,1.576468,4.312764,-0.126724,-0.737521,0.67533,11.14803,33.23952,-2.959,992.1622
4.906115532,-2.662564,1.753948,3.945108,-0.1256694,-0.7410001,0.683931,11.14803,33.23952,-2.959,992.1622
4.913718224,-2.849273,0.9848709,4.864247,-0.1436942,-0.7465712,0.6746656,11.14803,33.23952,-2.959,992.1622
4.921320438,-3.533871,0.5707526,2.351932,-0.1478188,-0.7327087,0.6818012,11.14803,33.23952,-2.959,992.1622
4.928923130,-4.591886,0.8073916,2.413208,-0.1252829,-0.7338209,0.6908787,10.76683,32.86776,-2.967876,992.1622
4.939059734,-4.778595,0.7482318,3.4549,-0.1129268,-0.7435564,0.6770618,10.76683,32.86776,-2.967876,992.1645
4.946662426,-4.716359,1.694788,3.393624,-0.1184094,-0.7347178,0.6961471,10.76683,32.86776,-2.967876,992.1645
4.954264164,-5.214248,1.10319,3.638727,-0.1004392,-0.7262065,0.7025909,10.76683,32.86776,-2.967876,992.1645
4.961866856,-6.210027,2.582184,4.006383,-0.07779591,-0.734073,0.7100435,10.76683,32.86776,-2.967876,992.1645
4.969469547,-5.83661,3.46958,6.886354,-0.09950698,-0.7237364,0.7002369,10.76683,32.86776,-2.967876,992.1645
4.977072239,-7.081334,4.475296,6.334871,-0.1216711,-0.7131574,0.7083104,11.15041,32.86328,-2.964365,992.1627
4.984674454,-10.31762,4.652775,6.579975,-0.1352988,-0.7164139,0.7140653,11.15041,32.86328,-2.964365,992.1627
4.992276669,-12.55812,4.416136,5.538283,-0.1002333,-0.7343658,0.7347417,11.15041,32.86328,-2.964365,992.1627
4.999878883,-15.1098,6.309248,7.86677,-0.1126295,-0.7244177,0.732141,11.15041,32.86328,-2.964365,992.1627
5.007481575,-18.28385,6.960005,6.579975,-0.1240053,-0.7146749,0.7469212,11.15041,32.86328,-2.964365,992.1627
5.015084266,-23.07604,9.030596,6.518699,-0.1632714,-0.7040542,0.7622953,11.15041,32.86328,-2.964365,992.1627
5.022686958,-26.87244,10.15463,4.067659,-0.2077096,-0.7109804,0.7414853,11.15041,32.86328,-2.964365,992.1627
5.032823562,-36.27011,1.990587,-1.140799,-0.2179445,-0.6504944,0.7648256,11.14803,33.23952,-2.959,992.1627
5.040425777,-47.16145,1.753948,-3.959493,-0.1738875,-0.7120826,0.7674338,11.14803,33.23952,-2.959,992.1627
5.048027992,-53.32283,3.647059,-6.533084,-0.2332719,-0.6710505,0.7580606,11.14803,33.23952,-2.959,992.1627
5.055630684,-61.97366,1.990587,-13.02834,-0.2191321,-0.6714419,0.7357861,11.14803,33.23952,-2.959,992.161
5.063232898,-71.4958,1.10319,-17.25638,-0.1715018,-0.6795219,0.7615096,11.14803,33.23952,-2.959,992.161
5.070835590,-79.95992,3.52874,-20.25891,-0.1720937,-0.6732427,0.7616746,11.14803,33.23952,-2.959,992.161
5.078438282,-90.60231,4.356977,-23.56781,-0.1599254,-0.6696137,0.7622135,11.53441,33.57574,-1.162056,992.161
5.086040020,-101.9915,5.540172,-25.40609,-0.1172315,-0.6762168,0.7783301,11.53441,33.57574,-1.162056,992.161
5.093642711,-115.6835,9.030596,-25.03843,-0.07690521,-0.6846025,0.8161446,11.53441,33.57574,-1.162056,992.161
5.101245403,-122.8407,13.52674,-21.7908,-0.07120817,-0.7073895,0.7904168,11.53441,33.57574,-1.162056,992.161
5.108848095,-133.2963,16.01145,-19.09466,-0.06788226,-0.73194,0.7849381,11.53441,33.57574,-1.162056,992.161
5.116450310,-143.2541,18.20036,-15.4181,-0.06411085,-0.7240512,0.7798178,11.53441,33.57574,-1.162056,992.161
5.126586914,-158.1286,21.45414,-10.3322,-0.09498612,-0.7194254,0.7853489,10.77262,33.90766,1.518391,992.161
5.134189606,-170.2646,24.58961,-7.881156,-0.1522714,-0.7179399,0.7676962,10.77262,33.90766,1.518391,992.1594
5.141791343,-181.0315,23.52473,-7.084569,-0.1757135,-0.7238543,0.7391176,10.77262,33.90766,1.518391,992.1594
5.149394035,-192.7941,20.15263,-5.246289,-0.177742,-0.6882156,0.7501937,10.77262,33.90766,1.518391,992.1594
5.156998634,-208.2287,18.25952,-3.346734,-0.2052444,-0.6466404,0.7861392,10.77262,33.90766,1.518391,992.1594
5.164599418,-224.7835,17.43128,-3.775666,-0.259315,-0.5980896,0.8025455,10.77262,33.90766,1.518391,992.1594
5.172204971,-245.3837,11.63363,-4.633529,-0.3170829,-0.5657733,0.7958391,10.77262,33.90766,1.518391,992.1594
5.179803848,-270.1537,0.9257111,-6.839465,-0.3631657,-0.5364945,0.7431284,10.47327,33.05231,6.868938,992.1594
5.187406540,-297.1642,-10.90624,-13.70237,-0.2987139,-0.5647287,0.7069296,10.47327,33.05231,6.868938,992.1594
5.195008755,-325.6684,-13.80507,-22.28101,-0.2145833,-0.5817789,0.5859449,10.47327,33.05231,6.868938,992.1594
5.202611446,-366.3709,-17.70961,-27.42819,-0.1739984,-0.6418478,0.5779766,10.47327,33.05231,6.868938,992.1594
5.210214138,-372.1589,10.80539,-138.9505,-0.9619547,-0.6345459,0.3855105,10.47327,33.05231,6.868938,992.1594
5.220350742,-401.8456,-44.6273,-182.7628,0.4664215,-2.032877,0.2905682,10.47327,33.05231,6.868938,992.1594
5.227952480,-468.9362,-61.72446,-3.285458,0.2217114,-2.298791,0.6636163,10.12252,31.39191,14.89027,992.1594
5.235555172,-463.8328,-52.37722,64.36322,-0.4308405,-1.948165,0.3405272,10.12252,31.39191,14.89027,992.1594
5.243157863,-402.0323,-8.007411,-43.91143,-0.7735963,-1.63755,-0.181659,10.12252,31.39191,14.89027,992.1594
5.250760555,-256.3373,-12.91767,-176.3901,-0.1903145,-2.267834,0.1329346,10.12252,31.39191,14.89027,992.1594
5.258362770,-261.1917,-11.37952,-123.3864,0.2004282,-2.57903,1.333619,10.12252,31.39191,14.89027,992.161
5.265965462,-298.5334,-6.646737,-76.75536,-0.009632615,-2.001394,0.4387675,10.12252,31.39191,14.89027,992.161
5.273567200,-233.061,-4.753625,-79.08385,0.03283055,-1.829871,0.5681956,9.414042,26.01978,23.68551,992.161
5.281169891,-194.599,11.92942,-66.82865,0.04029728,-1.580726,0.9282265,9.414042,26.01978,23.68551,992.161
5.288772583,-189.3089,11.98858,-58.43384,-0.09342789,-1.233645,0.9816223,9.414042,26.01978,23.68551,992.161
5.296375274,-186.8195,-13.62759,-59.41425,-0.1351702,-0.7157689,0.7763933,9.414042,26.01978,23.68551,992.1627
5.303977966,-161.1781,-49.00512,-71.85328,0.1211798,-0.06802308,0.5431646,9.414042,26.01978,23.68551,992.1627
5.314114094,-23.20051,-46.28377,-97.34409,0.8318873,0.1746863,1.492524,9.414042,26.01978,23.68551,992.1627
5.321716308,-234.119,-1.381519,-21.85208,1.73721,-1.725669,4.60321,9.414042,26.01978,23.68551,992.1627
5.329319000,-551.7103,93.03745,79.00818,0.8008327,-2.932923,1.714752,5.317482,19.30592,29.36391,992.1627
5.336921215,-73.0517,56.24007,132.9923,-0.6205021,-2.786968,-0.9737509,5.317482,19.30592,29.36391,992.1627
5.344523907,364.531,99.66334,-2.121214,-0.4263943,-1.153538,0.5176605,5.317482,19.30592,29.36391,992.1627
5.352126598,463.2376,113.98,-25.22226,0.01000041,-0.5702524,2.248143,5.317482,19.30592,29.36391,992.1627
5.359728336,380.09,64.5816,4.312764,-0.3876999,-0.04601246,1.033694,5.317482,19.30592,29.36391,992.1627
5.367331028,299.9921,1.22151,35.56351,-0.7290063,0.1691699,1.11475,5.317482,19.30592,29.36391,992.1627
5.374933719,149.1315,-92.78333,84.76812,-0.2784041,0.09639219,1.310446,3.056921,14.43331,32.85013,992.1627
5.382536411,19.36905,-108.4607,100.0871,0.113394,-0.2048595,1.524061,3.056921,14.43331,32.85013,992.1627
5.390138626,-49.21524,-98.58099,112.9551,0.09066365,-0.33113,1.146983,3.056921,14.43331,32.85013,992.1627
5.397741318,88.38899,-109.8805,117.1218,0.2380336,-1.536597,0.2259313,3.056921,14.43331,32.85013,992.1627
5.407877922,302.8549,-60.71874,98.61649,0.2273997,-1.016132,0.3916424,3.056921,14.43331,32.85013,992.1627
5.415479660,392.0394,-2.091436,105.602,0.2671215,-0.7010336,0.5697314,3.056921,14.43331,32.85013,992.1627
5.423082352,396.147,14.17749,127.6,0.05607056,-0.3952079,0.733881,0.003302574,22.96112,34.73232,992.1627
5.430685043,337.7072,-24.3355,137.8331,-0.2346528,-0.1472192,0.4929622,0.003302574,22.96112,34.73232,992.1627
5.438287735,268.4383,-76.33691,116.938,-0.3100148,0.0337745,0.491623,0.003302574,22.96112,34.73232,992.1627
5.445889950,211.7411,-103.1954,72.75803,-0.04155167,-0.3323683,0.62569,0.003302574,22.96112,34.73232,992.1627
5.453492164,203.0903,-107.7507,57.80669,0.1188563,-0.7038208,0.5150616,0.003302574,22.96112,34.73232,992.1627
5.461094856,225.2464,-99.35006,45.73532,0.1767191,-0.9117234,0.5853141,0.003302574,22.96112,34.73232,992.1627
5.468697071,251.3234,-73.61557,26.67849,0.2484244,-1.117507,0.737694,0.003302574,22.96112,34.73232,992.1627
5.476299763,274.3507,-41.43267,15.21989,0.2253156,-1.359863,0.6503208,3.290852,35.30933,26.8914,992.1627
5.483902454,300.241,-32.08543,12.83012,-0.04208256,-1.223041,0.6184928,3.290852,35.30933,26.8914,992.1627
5.491504192,308.5184,-31.55299,-2.79525,-0.1829438,-1.178441,0.5051342,3.290852,35.30933,26.8914,992.1627
5.501641750,295.8222,-54.15202,-18.84956,-0.3168113,-1.105384,0.448042,3.290852,35.30933,26.8914,992.1645
5.509243488,281.8813,-77.22431,-34.90386,-0.2228281,-1.198021,0.4593463,3.290852,35.30933,26.8914,992.1645
5.516846180,271.0522,-80.7739,-41.52167,-0.0473837,-1.290166,0.5974443,3.290852,35.30933,26.8914,992.1645
5.524448872,262.4636,-69.06026,-40.11232,0.02502001,-1.404479,0.6411002,10.03311,45.50108,15.09148,992.1645
5.532051086,260.6588,-52.5547,-33.73962,0.002329417,-1.487218,0.6023116,10.03311,45.50108,15.09148,992.1645
5.539653778,262.7126,-42.91166,-28.59244,-0.1497531,-1.414307,0.4906901,10.03311,45.50108,15.09148,992.1627
5.547255516,256.9246,-45.21889,-29.81796,-0.2506877,-1.262589,0.4297409,10.03311,45.50108,15.09148,992.1627
5.554858208,237.5069,-54.62529,-34.10727,-0.2645505,-1.187388,0.4698982,10.03311,45.50108,15.09148,992.1627
5.562460899,213.546,-62.8485,-38.76425,-0.158722,-1.28126,0.5202588,10.03311,45.50108,15.09148,992.1627
5.570063591,200.8498,-57.87908,-39.37701,-0.08531367,-1.455234,0.5744374,10.03311,45.50108,15.09148,992.1627
5.577666283,199.9163,-45.81049,-36.49704,-0.07656871,-1.596763,0.6011642,11.82435,50.88842,4.901276,992.161
5.585268021,202.7169,-35.63501,-31.34986,-0.1744788,-1.711848,0.586891,11.82435,50.88842,4.901276,992.161
5.595405102,213.9194,-35.51669,-32.02389,-0.2697665,-1.784634,0.5254049,11.82435,50.88842,4.901276,992.161
5.603007316,226.3667,-41.78763,-28.89882,-0.3031941,-1.720832,0.4807967,11.82435,50.88842,4.901276,992.161
5.610609531,234.2706,-43.38494,-29.87923,-0.2238764,-1.663381,0.5052242,11.82435,50.88842,4.901276,992.161
5.618212223,236.4489,-40.60443,-29.02137,-0.1509765,-1.576182,0.5029118,11.82435,50.88842,4.901276,992.1627
5.625814915,237.258,-33.1503,-27.73457,-0.08844173,-1.51292,0.5009764,9.487808,60.11093,-9.679914,992.1627
5.633417606,235.5776,-21.67331,-25.95757,-0.07090988,-1.4853,0.4518859,9.487808,60.11093,-9.679914,992.1627
5.641019344,234.3329,-12.50355,-25.22226,-0.1096906,-1.453497,0.402599,9.487808,60.11093,-9.679914,992.1627
5.648622036,230.5987,-9.841364,-26.57033,-0.1281248,-1.409237,0.3579187,9.487808,60.11093,-9.679914,992.1627
5.656224728,223.1926,-8.480689,-28.34733,-0.09298051,-1.378229,0.3363936,9.487808,60.11093,-9.679914,992.1627
5.663826942,212.3635,-7.652453,-29.14392,-0.06021484,-1.355571,0.2832617,9.487808,60.11093,-9.679914,992.1588
5.671429634,197.8002,-6.824216,-29.4503,-0.03791362,-1.348814,0.2452069,4.871178,63.21526,-30.69369,992.1588
5.679031849,180.1252,-6.410098,-29.14392,-0.03402609,-1.357888,0.1671902,4.871178,63.21526,-30.69369,992.1588
5.689167976,155.4796,-8.36237,-27.73457,-0.08256221,-1.370091,0.0245311,4.871178,63.21526,-30.69369,992.1588
5.696770668,137.8668,-13.03599,-31.2273,-0.1162482,-1.416489,-0.07124279,4.871178,63.21526,-30.69369,992.1588
5.704373360,121.3119,-20.25348,-35.21024,-0.0938036,-1.452411,-0.140355,4.871178,63.21526,-30.69369,992.1588
5.711976051,105.5662,-21.96911,-38.70297,-0.06670094,-1.502863,-0.2016477,4.871178,63.21526,-30.69369,992.1588
5.719579220,94.36366,-12.14859,-38.76425,-0.02590691,-1.553489,-0.2654035,2.206841,54.52697,-43.29874,992.1588
5.727180958,90.62949,-0.0208449,-33.24941,-0.1054004,-1.555331,-0.3970688,2.206841,54.52697,-43.29874,992.1588
5.734783173,86.14849,5.362692,-34.22982,-0.21388,-1.417611,-0.4356552,2.206841,54.52697,-43.29874,992.1588
5.742385387,66.48185,3.824539,-36.61959,-0.1937946,-1.299221,-0.4249144,2.206841,54.52697,-43.29874,992.1588
5.749988079,40.7783,6.131769,-33.18813,-0.1354194,-1.250134,-0.4228576,2.206841,54.52697,-43.29874,992.1588
5.757590771,15.3237,14.11833,-25.40609,-0.1314694,-1.223362,-0.427971,2.206841,54.52697,-43.29874,992.1588
5.765193462,-8.699475,20.68507,-17.01128,-0.1828175,-1.218153,-0.3875814,2.206841,54.52697,-43.29874,992.1588
5.772795200,-28.864,22.1049,-10.3322,-0.2614507,-1.194167,-0.3818794,-1.50856,44.64631,-45.77439,992.1588
5.782931805,-56.55911,16.07061,-3.162906,-0.2996387,-1.235644,-0.2673908,-1.50856,44.64631,-45.77439,992.1588
5.790534496,-73.98524,4.889414,3.087244,-0.316371,-1.281688,-0.2149171,-1.50856,44.64631,-45.77439,992.1588
5.798137188,-44.79647,-2.623874,-0.5893148,-0.08070979,-0.6996009,-0.121805,-1.50856,44.64631,-45.77439,992.1588
5.805739403,-183.6454,29.02659,0.8813086,0.2289169,-0.4765903,0.2259653,-1.50856,44.64631,-45.77439,992.1588
5.813342094,-4.965303,53.22293,-42.80846,-0.1010587,0.8214591,-0.004455913,-1.50856,44.64631,-45.77439,992.1588
5.820944786,98.47125,152.6113,7.86677,0.7281765,-0.6407202,3.57867,-3.009736,39.45827,-45.7988,992.157
5.828546524,-106.0991,160.2429,107.4402,-0.3457173,0.2604416,1.284489,-3.009736,39.45827,-45.7988,992.157
5.836149216,-366.3709,23.40642,156.3385,-0.4863491,-0.4151203,1.007993,-3.009736,39.45827,-45.7988,992.157
5.843751907,-462.3391,20.21179,164.4882,-0.6087804,-0.6905792,0.2206385,-3.009736,39.45827,-45.7988,992.157
5.851354599,-307.6199,-60.71874,59.33859,-1.008941,-1.3481,-0.2854596,-3.009736,39.45827,-45.7988,992.157
5.858956814,-114.0031,-44.80478,-155.495,-0.27906,-1.755198,0.7416328,-3.009736,39.45827,-45.7988,992.1552
5.866559029,-51.95363,5.776811,-128.2885,0.3515243,-2.033103,1.618307,-3.009736,39.45827,-45.7988,992.1552
5.874164104,-121.8449,76.35439,-7.574776,-0.2776829,-1.563154,1.239314,-1.068625,37.11746,-42.74818,992.1552
5.884297848,-123.0274,52.39469,51.6791,-1.155152,-1.173469,0.3527988,-1.068625,37.11746,-42.74818,992.1552
5.891900539,-110.02,-80.89222,-52.98027,-0.6757469,-0.8299858,0.5244391,-1.068625,37.11746,-42.74818,992.1552
5.899503231,-116.9905,-130.054,-114.6239,0.3159229,-1.267515,0.9499835,-1.068625,37.11746,-42.74818,992.157
5.907105923,-117.1149,-106.2718,-94.58667,0.7516446,-1.417505,1.140822,-1.068625,37.11746,-42.74818,992.157
5.914707661,-73.98524,-7.948252,-48.26202,0.6320274,-1.234351,0.82957,-1.068625,37.11746,-42.74818,992.157
5.922313690,-11.81129,60.6179,-14.49896,0.1940612,-0.9972644,0.7129735,-1.467684,41.12686,-39.11742,992.157
5.929913044,2.565276,56.94999,-2.856526,-0.05657032,-0.6840143,0.7281832,-1.467684,41.12686,-39.11742,992.157
5.937515259,-34.71421,1.872267,-14.00875,-0.1086866,-0.4312257,0.7146277,-1.467684,41.12686,-39.11742,992.157
5.945117950,-81.88924,-34.27434,-38.94807,0.19678,-0.6652336,0.8713319,-1.467684,41.12686,-39.11742,992.1552
5.952720642,-78.71519,-22.79735,-28.83754,0.3332786,-0.8940961,0.7403316,-1.467684,41.12686,-39.11742,992.1552
5.960322380,-47.5971,16.83968,-8.922848,0.2920798,-0.9934373,0.832556,-1.467684,41.12686,-39.11742,992.1552
5.967925072,-31.85134,42.98829,15.09734,-0.01922967,-0.9497287,0.8192183,-4.48177,43.02546,-38.22406,992.1552
5.978061676,-21.08448,30.38727,9.337394,-0.2807838,-0.6892232,0.5920575,-4.48177,43.02546,-38.22406,992.1552
5.985664368,-27.55704,4.593616,-1.263351,-0.1601797,-0.6488273,0.8013971,-4.48177,43.02546,-38.22406,992.157
5.993267059,-45.73001,-1.854797,0.1459969,0.02226591,-0.7668459,0.8180419,-4.48177,43.02546,-38.22406,992.157
6.000870704,-46.72579,4.416136,2.597036,0.03596044,-0.9522827,0.7668097,-4.48177,43.02546,-38.22406,992.157
6.008471489,-15.85664,15.41985,0.02344491,-0.0677691,-0.8829883,0.5993923,-4.48177,43.02546,-38.22406,992.157
6.016073704,-0.4842972,20.44843,-1.202075,-0.07003042,-0.6930174,0.7666346,-4.48177,43.02546,-38.22406,992.157
6.023676395,-17.66149,8.261519,0.6974807,-0.04968875,-0.6201122,0.776193,-4.154367,42.60867,-36.37457,992.157
6.031279087,-28.80177,-0.6124424,-1.569731,0.05918219,-0.702184,0.7428024,-4.154367,42.60867,-36.37457,992.157
6.038881778,-23.57393,6.309248,1.739172,0.1181971,-0.8179781,0.6932362,-4.154367,42.60867,-36.37457,992.157
6.046483516,-10.81551,14.11833,7.437839,0.07883622,-0.7102565,0.7241752,-4.154367,42.60867,-36.37457,992.157
6.054086208,-15.29651,15.00573,9.827601,0.03852153,-0.7248535,0.7413127,-4.154367,42.60867,-36.37457,992.157
6.061688900,-16.35453,10.80539,9.827601,-0.004343375,-0.7442431,0.6762177,-4.154367,42.60867,-36.37457,992.1588
6.071825504,-9.508546,14.82825,10.25653,-0.02339914,-0.7358558,0.7460529,-4.154347,42.96842,-35.53904,992.1588
6.079427719,-10.44209,15.00573,9.153565,-0.1061452,-0.7360142,0.7033202,-4.154347,42.96842,-35.53904,992.1588
6.087030411,-8.761711,6.900846,5.599559,-0.1065429,-0.7104925,0.7131622,-4.154347,42.96842,-35.53904,992.1588
6.094633102,-10.75327,6.900846,4.128935,-0.08764677,-0.7528321,0.759823,-4.154347,42.96842,-35.53904,992.1588
6.102234840,-8.637239,5.185213,1.800448,-0.1380742,-0.7601138,0.6825075,-4.154347,42.96842,-35.53904,992.1622
6.109837532,-4.52965,2.345545,-2.18249,-0.09780157,-0.7355736,0.7197285,-4.154347,42.96842,-35.53904,992.1622
6.117440223,-5.525429,-0.7307619,-3.469286,-0.03288849,-0.6992512,0.7083911,-3.773146,43.34018,-35.53016,992.1622
6.125042915,-6.707917,-0.1983241,-3.285458,0.02597353,-0.7057074,0.7384685,-3.773146,43.34018,-35.53016,992.1622
6.132645130,-7.392515,3.46958,-0.7731428,0.0114492,-0.7160404,0.7285853,-3.773146,43.34018,-35.53016,992.1622
6.140247345,-6.210027,4.356977,-0.221659,-0.02146758,-0.7105581,0.7022648,-3.773146,43.34018,-35.53016,992.1622
6.147849560,-5.712138,3.173782,0.2685488,0.01057926,-0.6950352,0.7127105,-3.773146,43.34018,-35.53016,992.1622
6.155452251,-8.077113,3.114622,2.719588,0.05327565,-0.7029772,0.7200978,-3.773146,43.34018,-35.53016,992.1622
6.165588856,-9.197365,5.481012,6.763803,0.09054984,-0.7130039,0.6931525,-3.773146,43.34018,-35.53016,992.1622
6.173191547,-8.512767,9.208076,10.19526,0.09868094,-0.7021602,0.6909934,-3.388266,43.32681,-35.07964,992.1622
6.180794239,-8.388294,15.53817,14.05564,0.07349394,-0.6845406,0.7113352,-3.388266,43.32681,-35.07964,992.1622
6.188396454,-12.37141,20.15263,17.05817,0.02093504,-0.6966213,0.7392035,-3.388266,43.32681,-35.07964,992.1622
6.195998668,-16.16782,21.57246,17.67093,-0.07121968,-0.7448305,0.7285816,-3.388266,43.32681,-35.07964,992.1622
6.203601360,-13.05601,19.14691,14.60713,-0.1227342,-0.7493446,0.6228424,-3.388266,43.32681,-35.07964,992.1622
6.211203575,-9.819727,10.62791,9.459946,-0.08598585,-0.7397451,0.7239301,-3.388266,43.32681,-35.07964,992.1622
6.218806267,-13.80284,10.21379,8.602082,-0.08896924,-0.7399822,0.7002646,-3.388266,43.32681,-35.07964,992.1622
6.226408958,-11.18892,7.610762,5.844663,-0.07023181,-0.7532586,0.6708784,-3.388266,43.32681,-35.07964,992.1639
6.234010696,-10.69103,5.95429,5.109351,-0.04909926,-0.7265127,0.6946921,-3.388266,43.32681,-35.07964,992.1639
6.241613388,-12.37141,5.95429,5.538283,-0.03180706,-0.7350724,0.7098722,-3.388266,43.32681,-35.07964,992.1639
6.249216080,-12.55812,5.540172,6.028491,-0.02456813,-0.7330967,0.6809185,-3.388266,43.32681,-35.07964,992.1639
6.259352684,-11.87352,5.717651,8.602082,0.01211062,-0.7306401,0.6982557,-3.388266,43.32681,-35.07964,992.1639
6.266955376,-10.75327,6.960005,11.78843,0.04815656,-0.7225717,0.692555,-2.23492,43.29558,-34.17507,992.1639
6.274557590,-10.44209,9.622193,16.62923,0.06421188,-0.7134327,0.7222068,-2.23492,43.29558,-34.17507,992.1639
6.282160282,-13.67837,13.94086,18.89644,-0.01277754,-0.7344842,0.6943702,-2.23492,43.29558,-34.17507,992.1639
6.289762020,-11.25116,13.11262,18.03858,-0.06983387,-0.7527674,0.6336961,-2.23492,43.29558,-34.17507,992.1639
6.297366142,-8.512767,8.02488,15.83265,-0.0406603,-0.7301112,0.7240371,-2.23492,43.29558,-34.17507,992.1639
6.304967403,-12.12247,11.92942,15.77137,-0.1150777,-0.7610661,0.6799949,-2.23492,43.29558,-34.17507,992.1639
6.312570095,-8.201586,9.444715,11.66588,-0.1781616,-0.7649216,0.6544933,-2.23492,43.29558,-34.17507,992.1639
6.320172787,-6.894626,5.126053,7.437839,-0.1609404,-0.7338364,0.7107955,-2.238394,44.03918,-33.71732,992.1639
6.327774525,-11.3134,1.931427,5.048075,-0.1445201,-0.7526965,0.6976948,-2.238394,44.03918,-33.71732,992.1639
6.335377216,-9.384073,1.753948,1.923,-0.127283,-0.7618488,0.6838774,-2.238394,44.03918,-33.71732,992.1639
6.342979431,-9.321837,1.458149,0.3911008,-0.1130831,-0.7294744,0.7107576,-2.238394,44.03918,-33.71732,992.1639
6.353116035,-13.92732,-0.7307619,-0.5893148,-0.08897632,-0.7399448,0.6973674,-2.238394,44.03918,-33.71732,992.1639
6.360718727,-13.18048,-2.091436,-1.447178,-0.06161548,-0.7379672,0.6997474,-2.238394,44.03918,-33.71732,992.1639
6.368321419,-16.23005,-2.091436,-0.160383,-0.04372309,-0.7210917,0.7329757,-1.467544,43.64508,-33.26865,992.1639
6.375924110,-20.64882,-4.221187,1.432792,-0.05972397,-0.7000863,0.7306738,-1.467544,43.64508,-33.26865,992.1639
6.383525848,-25.68996,-8.539849,2.719588,-0.0786847,-0.7067824,0.7320089,-1.467544,43.64508,-33.26865,992.1639
6.391128540,-29.85978,-13.74591,0.4523768,0.004209555,-0.6871379,0.7655867,-1.467544,43.64508,-33.26865,992.1639
6.398731232,-34.21632,-2.091436,0.9425846,-0.01579876,-0.7737365,0.8044582,-1.467544,43.64508,-33.26865,992.1639
6.406335831,-33.8429,0.5115929,2.351932,-0.1696669,-0.7458937,0.6564099,-1.467544,43.64508,-33.26865,992.1639
6.413936138,-35.95893,-7.534133,-6.410532,-0.2060175,-0.702035,0.6890615,-1.467544,43.64508,-33.26865,992.1639
6.421538353,-44.60976,-15.69818,-11.06751,-0.1422672,-0.7048525,0.7448189,-1.464955,43.62732,-32.37462,992.1639
6.429140568,-51.08232,-15.40238,-13.6411,-0.1515573,-0.7045953,0.7477532,-1.464955,43.62732,-32.37462,992.1656
6.436743259,-56.49688,-18.53785,-17.99169,-0.1545334,-0.6713455,0.7549058,-1.464955,43.62732,-32.37462,992.1656
6.446879864,-70.37555,-24.09886,-21.97463,-0.06031401,-0.651897,0.8212892,-1.464955,43.62732,-32.37462,992.1656
6.454482555,-83.50739,-19.89852,-21.3006,-0.03985804,-0.6435547,0.8446269,-1.464955,43.62732,-32.37462,992.1656
6.462084770,-95.58121,-15.8165,-21.05549,-0.07423079,-0.6425776,0.7901779,-1.464955,43.62732,-32.37462,992.1656
6.469686985,-108.2152,-19.01112,-22.70994,-0.07141961,-0.6334761,0.8019984,-1.844452,43.96363,-30.13767,992.1613
6.477289677,-123.4008,-23.15231,-22.70994,-0.06402634,-0.6040937,0.824958,-1.844452,43.96363,-30.13767,992.1613
6.484891891,-143.8143,-23.32979,-23.56781,-0.06536601,-0.6070049,0.8606312,-1.844452,43.96363,-30.13767,992.1613
6.492494583,-162.1739,-20.31264,-23.99674,-0.05175899,-0.6406996,0.7925709,-1.844452,43.96363,-30.13767,992.1613
6.500097275,-175.6169,-18.59701,-23.0776,-0.07102852,-0.6249955,0.8205728,-1.844452,43.96363,-30.13767,992.1613
6.507699966,-193.4787,-15.99398,-24.05802,-0.08096328,-0.5767016,0.8885177,-1.844452,43.96363,-30.13767,992.163
6.515301704,-220.427,-15.93482,-25.65119,-0.04969321,-0.5741919,0.8933145,-2.980559,44.59632,-23.43222,992.163
6.522904396,-252.2297,-19.95768,-25.58991,-0.02477088,-0.6327192,0.8912322,-2.980559,44.59632,-23.43222,992.163
6.530507088,-275.8795,-15.75734,-22.77122,-0.04636426,-0.6706695,0.7975717,-2.980559,44.59632,-23.43222,992.163
6.540643692,-291.9364,-3.392951,-31.90134,-0.1653135,-0.5796974,0.7636003,-2.980559,44.59632,-23.43222,992.163
6.548245907,-321.0007,-0.6716021,-49.73265,-0.2082867,-0.5843748,0.7583013,-2.980559,44.59632,-23.43222,992.163
6.555848598,-356.3509,-1.795637,-69.15714,-0.2001711,-0.7582542,0.7030396,-2.980559,44.59632,-23.43222,992.163
6.563450336,-378.1958,-15.2249,-87.90759,-0.1268053,-0.8927883,0.5906296,-2.980559,44.59632,-23.43222,992.163
6.571053028,-407.5713,-16.88137,-100.2241,-0.1190036,-1.367014,0.8111081,-4.810037,45.82931,-11.80618,992.163
6.578655720,-421.3877,-30.42896,-104.9423,-0.1570108,-1.428663,-0.01781326,-4.810037,45.82931,-11.80618,992.163
6.586258411,-376.3287,-47.4078,-127.737,-0.07296505,-1.8394,0.428202,-4.810037,45.82931,-11.80618,992.163
6.593864441,-364.815,-63.85421,-136.3769,0.1807663,-2.186996,0.4531484,-4.810037,45.82931,-11.80618,992.163
6.601462841,-339.1115,-46.10629,-111.8665,0.2813359,-2.023729,0.04214453,-4.810037,45.82931,-11.80618,992.163
6.609065533,-298.16,7.433283,-76.81664,-0.02793788,-2.546089,0.7140129,-4.810037,45.82931,-11.80618,992.163
6.616667747,-252.6031,5.481012,-70.56648,-0.5142484,-2.3959,0.4286644,-8.201571,44.07336,5.958481,992.163
6.624270439,-193.9766,-57.05084,-111.0086,-0.4543637,-1.777682,0.2604994,-8.201571,44.07336,5.958481,992.163
6.634407043,-189.3089,-110.3538,-114.9916,0.03924005,-1.519848,1.12206,-8.201571,44.07336,5.958481,992.163
6.642009735,-203.561,-117.7487,-96.91515,0.1485295,-1.178575,1.108361,-8.201571,44.07336,5.958481,992.163
6.649612427,-199.3289,-119.6419,-86.43697,0.1913424,-0.7325198,0.787968,-8.201571,44.07336,5.958481,992.163
6.657214165,-192.1718,-132.7162,-80.55447,0.4365785,-0.2418354,0.5535923,-8.201571,44.07336,5.958481,992.163
6.664816856,-158.8132,-140.9985,-76.81664,0.8758631,0.1601467,0.9292711,-11.49384,35.59629,21.0089,992.1647
6.672419548,-42.55597,-28.41752,-92.50328,1.880312,-0.7067494,2.601445,-11.49384,35.59629,21.0089,992.1647
6.680021763,-378.3825,71.2075,40.46559,1.783828,-2.185268,4.354918,-11.49384,35.59629,21.0089,992.1647
6.687624454,-278.0577,156.5159,192.1849,0.5897883,-2.739185,-0.03827989,-11.49384,35.59629,21.0089,992.1647
6.695226669,35.11481,102.5622,206.5848,-1.001817,-1.223234,0.1008089,-11.49384,35.59629,21.0089,992.1647
6.702828884,281.9435,111.1995,50.51485,-0.671561,-0.6411983,0.9418428,-11.49384,35.59629,21.0089,992.1647
6.710431576,260.0364,5.717651,25.45297,-0.2371623,-0.377357,1.397513,-11.49384,35.59629,21.0089,992.1664
6.718034267,184.295,-41.61015,55.47821,-0.03252018,-0.1378961,1.283778,-12.97315,30.978,30.19101,992.1664
6.728170872,101.5208,-34.3335,110.933,0.3558227,-0.2512004,1.33419,-12.97315,30.978,30.19101,992.1664
6.735773563,53.78567,-15.63902,143.9607,0.3025109,-0.2764742,1.146767,-12.97315,30.978,30.19101,992.1664
6.743375778,50.9228,-9.072287,153.7036,0.2443111,-0.5470819,0.9061315,-12.97315,30.978,30.19101,992.1664
6.750977993,109.6115,-16.46725,157.3802,0.2044899,-0.8105096,0.6260155,-12.97315,30.978,30.19101,992.1641
6.758580208,182.179,-10.19632,143.8382,0.2347193,-0.8200045,0.7333903,-12.97315,30.978,30.19101,992.1641
6.766182899,233.3993,14.59161,130.1123,0.3286959,-0.8151232,0.8027772,-12.60796,32.89915,27.98626,992.1641
6.773785591,249.8297,22.1049,140.1616,0.1998798,-0.6347919,0.7315496,-12.60796,32.89915,27.98626,992.1641
6.781388283,248.8961,9.208076,132.0119,0.1331671,-0.5556053,0.5686195,-12.60796,32.89915,27.98626,992.1641
6.788990021,256.6134,-1.558998,122.3916,0.2364944,-0.564557,0.562264,-12.60796,32.89915,27.98626,992.1658
6.796596050,261.0322,2.404705,115.2223,0.2589527,-0.5374773,0.5252197,-12.60796,32.89915,27.98626,992.1658
6.804195404,256.7379,2.759663,107.1951,0.2454692,-0.5794401,0.5294855,-12.60796,32.89915,27.98626,992.1658
6.811797619,252.1324,-1.026561,97.20715,0.2657086,-0.70665,0.5526837,-12.60796,32.89915,27.98626,992.1658
6.821934223,251.5723,-3.392951,87.28043,0.2853256,-0.8860759,0.5696969,-4.703245,40.47799,14.4351,992.1658
6.829536915,253.5016,-6.173459,81.09156,0.2702378,-1.011127,0.5578012,-4.703245,40.47799,14.4351,992.1634
6.837139606,258.9162,-11.02456,69.81678,0.2359595,-1.072841,0.5220108,-4.703245,40.47799,14.4351,992.1634
6.844741344,275.222,-11.91195,51.06633,0.211462,-1.077922,0.464958,-4.703245,40.47799,14.4351,992.1634
6.852344036,287.2336,-10.49212,34.33799,0.2221563,-1.033689,0.542393,-4.703245,40.47799,14.4351,992.1634
6.859946728,278.6451,-13.15431,20.24452,0.2027089,-1.00865,0.5595282,-4.703245,40.47799,14.4351,992.1634
6.867549419,270.6788,-15.8165,7.070182,0.2297183,-1.105334,0.5540328,4.745461,38.71759,6.002428,992.1634
6.875151634,268.2516,-11.97111,-1.692282,0.2313433,-1.200091,0.5839294,4.745461,38.71759,6.002428,992.1634
6.882753849,263.7083,-10.61044,-4.939909,0.1830625,-1.270976,0.5614699,4.745461,38.71759,6.002428,992.1634
6.890360355,258.1071,-16.17146,-9.290504,0.1669354,-1.335298,0.5313506,4.745461,38.71759,6.002428,992.1634
6.897958755,256.3022,-21.67331,-17.56276,0.2133686,-1.362949,0.5338668,4.745461,38.71759,6.002428,992.1634
6.905561447,257.9826,-17.76877,-24.18057,0.2772506,-1.347519,0.564014,4.745461,38.71759,6.002428,992.1634
6.915698051,254.8086,-0.08000464,-25.22226,0.1663193,-1.261399,0.58061,8.12542,37.65582,0.6531315,992.1611
6.923300743,240.1208,-4.162027,-34.2911,0.03399124,-1.281761,0.5249501,8.12542,37.65582,0.6531315,992.1611
6.930902958,221.0143,-21.02256,-45.2595,0.002055401,-1.39182,0.52509,8.12542,37.65582,0.6531315,992.1611
6.938505173,208.9405,-34.51098,-54.63473,0.07023815,-1.580407,0.5407457,8.12542,37.65582,0.6531315,992.1611
6.946107864,204.8329,-39.06628,-60.51722,0.1044224,-1.721946,0.5707731,8.12542,37.65582,0.6531315,992.1611
6.953710079,211.0565,-36.81821,-63.45847,0.1336388,-1.844664,0.4858596,8.12542,37.65582,0.6531315,992.1605
6.961312771,228.9183,-31.96711,-58.18873,0.03843448,-1.74148,0.4434358,6.56539,38.20992,-7.401848,992.1605
6.968915462,228.7939,-32.02627,-55.61514,-0.02223179,-1.646335,0.4774967,6.56539,38.20992,-7.401848,992.1605
6.976517200,216.4711,-39.1846,-50.65179,-0.1011279,-1.618749,0.3919994,6.56539,38.20992,-7.401848,992.1605
6.984119892,212.8614,-46.87537,-49.48755,-0.08534466,-1.664617,0.3327936,6.56539,38.20992,-7.401848,992.1605
6.991722584,211.2433,-47.23032,-45.56588,0.006651625,-1.716976,0.4079452,6.56539,38.20992,-7.401848,992.1622
6.999325275,208.6293,-38.593,-36.68087,0.03147621,-1.742786,0.3840105,6.56539,38.20992,-7.401848,992.1622
7.009461879,214.604,-22.26491,-25.16098,-0.06317011,-1.648354,0.3080282,6.56539,38.20992,-7.401848,992.1622
7.017064094,212.1768,-17.94625,-18.42063,-0.1628979,-1.50578,0.2820991,3.262023,26.98992,-2.674843,992.1622
7.024666309,201.2855,-20.19432,-13.08961,-0.2222293,-1.416976,0.2102062,3.262023,26.98992,-2.674843,992.1622
7.032268524,186.0376,-29.00912,-10.08709,-0.2228815,-1.386131,0.1453168,3.262023,26.98992,-2.674843,992.1599
7.039871216,171.5366,-35.28006,-8.003708,-0.1382076,-1.42152,0.1325369,3.262023,26.98992,-2.674843,992.1599
7.047473907,159.4005,-33.32778,-3.530562,-0.09806971,-1.431119,0.07709464,3.262023,26.98992,-2.674843,992.1599
7.055076599,148.0735,-30.31064,-0.03783107,-0.138887,-1.428476,-0.003857654,3.262023,26.98992,-2.674843,992.1599
7.062679291,134.1326,-32.91367,-0.09910705,-0.1864268,-1.430595,-0.06414189,2.044073,35.26194,-7.933323,992.1599
7.070281029,119.4449,-38.35636,-2.427594,-0.2300051,-1.413956,-0.1833647,2.044073,35.26194,-7.933323,992.1593
7.077883720,109.1136,-42.20174,-6.778188,-0.2477845,-1.409391,-0.2271461,2.044073,35.26194,-7.933323,992.1593
7.085485935,96.4797,-43.97654,-11.12878,-0.2489429,-1.430935,-0.2475066,2.044073,35.26194,-7.933323,992.1593
7.093088627,83.28562,-44.3315,-14.37641,-0.2455406,-1.406513,-0.2961526,2.044073,35.26194,-7.933323,992.1593
7.103225231,67.35316,-38.77048,-19.95252,-0.2369672,-1.288705,-0.4075985,2.044073,35.26194,-7.933323,992.1593
7.110827923,50.61162,-32.97282,-19.46232,-0.2186744,-1.188006,-0.4538268,-2.956782,42.99363,-18.5365,992.161
7.118429661,23.35217,-29.83736,-14.68279,-0.2032553,-1.142805,-0.4435236,-2.956782,42.99363,-18.5365,992.161
7.126032352,-11.12669,-27.58929,-6.533084,-0.2140475,-1.201487,-0.4522596,-2.956782,42.99363,-18.5365,992.161
7.133635044,-33.22054,-25.63702,-2.979078,-0.2571186,-1.267396,-0.5142151,-2.956782,42.99363,-18.5365,992.161
7.141237736,-50.27325,-30.90223,-2.733974,-0.1980568,-1.311086,-0.449844,-2.956782,42.99363,-18.5365,992.161
7.148839950,-74.04749,-33.38694,-0.4667629,-0.02252709,-1.409427,-0.3191528,-2.956782,42.99363,-18.5365,992.1586
7.156442165,-86.12131,-19.7802,2.53576,0.1186614,-1.469455,-0.1728666,-2.956782,42.99363,-18.5365,992.1586
7.164044380,-78.71519,11.51531,12.58502,0.1271046,-1.460317,-0.2668478,-8.267343,42.36539,-21.7249,992.1586
7.171647072,12.08741,60.73622,-29.14392,1.033617,-1.092684,1.024229,-8.267343,42.36539,-21.7249,992.1586
7.179249763,-64.21416,124.1555,-10.94495,0.345879,0.3901122,0.5089511,-8.267343,42.36539,-21.7249,992.1586
7.186854362,67.29092,231.2938,-20.74911,0.7204202,-0.657847,2.388533,-8.267343,42.36539,-21.7249,992.1586
7.194455147,-29.79754,219.6393,63.81173,0.4858893,-0.5567865,1.919007,-8.267343,42.36539,-21.7249,992.1563
7.204591274,-262.0008,72.56817,123.0656,-0.3013212,-0.3257046,0.8614394,-8.267343,42.36539,-21.7249,992.1563
7.212193489,-357.0977,98.42098,135.137,-0.6488289,-0.4604199,0.6262149,-11.66542,43.55153,-22.63384,992.1563
7.219796181,-263.619,90.49358,59.33859,-1.105346,-1.159916,-0.2396911,-11.66542,43.55153,-22.63384,992.1563
7.227398395,-105.0411,44.99972,-99.91768,-1.084412,-1.544318,0.3907614,-11.66542,43.55153,-22.63384,992.1563
7.235001087,-50.89562,22.51902,-117.5039,-0.4674125,-1.522706,1.331775,-11.66542,43.55153,-22.63384,992.1536
7.242603779,-140.7647,45.11804,-43.66632,-0.7148411,-1.53017,1.295653,-11.66542,43.55153,-22.63384,992.1536
7.250205517,-155.2657,36.77652,29.19081,-1.082001,-1.570547,0.4011822,-11.66542,43.55153,-22.63384,992.1536
7.257808208,-110.02,-44.74561,-14.98917,-0.8588329,-1.258023,0.5800736,-11.66542,43.55153,-22.63384,992.1536
7.265410900,-91.28691,-85.09256,-62.60061,-0.02255876,-1.260803,0.7609116,-9.750843,46.01126,-18.10946,992.1536
7.273013592,-84.12975,-91.18601,-67.07375,0.4352697,-1.141873,1.005038,-9.750843,46.01126,-18.10946,992.1555
7.280615806,-70.56226,-37.58728,-54.9411,0.5688394,-0.9681273,0.9941556,-9.750843,46.01126,-18.10946,992.1555
7.288218021,-41.49795,36.6582,-18.97211,0.2469788,-0.8468487,0.7693648,-9.750843,46.01126,-18.10946,992.1555
7.298355102,-29.73531,44.23065,7.989322,-0.1443243,-0.596764,0.6196291,-9.750843,46.01126,-18.10946,992.1555
7.305956840,-56.93253,-9.782204,-4.510977,-0.1038163,-0.3794404,0.6488157,-9.750843,46.01126,-18.10946,992.1555
7.313559532,-96.88817,-38.35636,-21.05549,0.3201177,-0.6197975,0.8088448,-13.59106,47.52557,-16.33503,992.1548
7.321162224,-101.3692,-25.45954,-13.45727,0.5243665,-0.8470076,0.8056777,-13.59106,47.52557,-16.33503,992.1548
7.328764915,-92.59387,14.94657,16.2003,0.5857477,-1.256006,0.9706832,-13.59106,47.52557,-16.33503,992.1548
7.336367607,-49.58866,61.86026,44.50981,0.1472566,-0.9729494,0.5195729,-13.59106,47.52557,-16.33503,992.1548
7.343969345,-9.010656,76.65019,37.09541,-0.07926223,-0.691355,0.5870178,-13.59106,47.52557,-16.33503,992.1548
7.351572037,-33.90514,59.4347,44.38725,0.01012377,-0.945644,1.072342,-13.59106,47.52557,-16.33503,992.1566
7.359174251,-71.37133,43.28409,55.72331,-0.3170046,-1.092819,0.6729805,-15.82326,47.87469,-13.66804,992.1566
7.366776943,-13.36719,50.50158,47.26722,-0.5146945,-0.7837604,0.2739525,-15.82326,47.87469,-13.66804,992.1566
7.374379635,14.14121,33.64105,21.71514,-0.2901738,-0.7995095,0.8312228,-15.82326,47.87469,-13.66804,992.1566
7.381981373,-8.886184,9.858832,21.53131,-0.155153,-0.5700877,0.7850714,-15.82326,47.87469,-13.66804,992.1566
7.392118931,-30.17096,19.50187,20.91855,-0.1539179,-0.862554,0.717573,-15.82326,47.87469,-13.66804,992.1583
7.399720669,-8.014877,14.70993,16.44541,-0.2016304,-0.8020104,0.6033682,-15.82326,47.87469,-13.66804,992.1583
7.407325268,-4.156233,9.148915,9.337394,-0.06682611,-0.7107388,0.7569865,-15.82326,47.87469,-13.66804,992.1583
7.414926052,-13.49166,10.80539,12.40119,-0.0423349,-0.7440096,0.7478331,-14.67468,48.59595,-12.75274,992.1583
7.422528267,-11.25116,11.63363,11.72716,-0.08450215,-0.7817252,0.6412018,-14.67468,48.59595,-12.75274,992.1583
7.430130958,-4.405178,10.27295,10.31781,-0.07087314,-0.7387652,0.7094167,-14.67468,48.59595,-12.75274,992.1583
7.437733173,-6.894626,11.16035,10.44036,-0.09634178,-0.7368327,0.7071323,-14.67468,48.59595,-12.75274,992.16
7.445335388,-6.583445,7.729082,8.847186,-0.1269666,-0.7534145,0.6686385,-14.67468,48.59595,-12.75274,992.16
7.452941418,-3.782816,6.250089,7.25401,-0.09889779,-0.7292232,0.7136175,-14.67468,48.59595,-12.75274,992.16
7.460540771,-5.83661,6.960005,7.070182,-0.1191175,-0.7207544,0.7008594,-13.90989,48.96322,-12.74036,992.16
7.468143463,-6.645681,3.942858,5.415731,-0.09432361,-0.7433095,0.6871532,-13.90989,48.96322,-12.74036,992.16
7.475745201,-5.649901,4.356977,4.619143,-0.0849831,-0.7442755,0.7015896,-13.90989,48.96322,-12.74036,992.1577
7.485881805,-5.774374,3.765379,4.986799,-0.08909272,-0.7340268,0.6888269,-13.90989,48.96322,-12.74036,992.1577
7.493484497,-4.778595,3.647059,4.557868,-0.07930465,-0.7347641,0.6863616,-13.90989,48.96322,-12.74036,992.1577
7.501086712,-4.778595,3.765379,4.741695,-0.08824293,-0.7262602,0.6885429,-13.90989,48.96322,-12.74036,992.1577
7.508689403,-5.338721,3.765379,4.986799,-0.1008895,-0.7299554,0.6923512,-13.58656,48.57436,-12.29578,992.1577
7.516292095,-4.778595,2.818823,4.680419,-0.0804587,-0.7219219,0.702156,-13.58656,48.57436,-12.29578,992.1594
7.523894787,-5.898847,3.883698,5.415731,-0.08916236,-0.7274727,0.7059036,-13.58656,48.57436,-12.29578,992.1594
7.531497955,-6.583445,2.818823,4.986799,-0.09302082,-0.7313663,0.7014673,-13.58656,48.57436,-12.29578,992.1594
7.539099216,-5.774374,3.114622,5.477007,-0.07403192,-0.7265866,0.6986333,-13.58656,48.57436,-12.29578,992.1594
7.546701908,-8.388294,3.647059,6.396147,-0.07788152,-0.704071,0.6736295,-13.58656,48.57436,-12.29578,992.1594
7.554304123,-11.00221,3.52874,8.295702,-0.0689694,-0.7640232,0.7188982,-13.58656,48.57436,-12.29578,992.1611
7.561906814,-5.961082,5.244373,10.50164,-0.05719559,-0.7732749,0.6669359,-13.20427,48.57875,-12.73929,992.1611
7.569509029,-3.098217,7.374124,12.27864,-0.07884712,-0.732379,0.6898034,-13.20427,48.57875,-12.73929,992.1611
7.579645157,-5.525429,6.486727,11.78843,-0.1381902,-0.7537559,0.6773597,-13.20427,48.57875,-12.73929,992.1611
7.587247848,-3.72058,4.061178,9.398669,-0.1270118,-0.7505243,0.6696797,-13.20427,48.57875,-12.73929,992.1611
7.594850540,-3.409399,2.463865,8.295702,-0.1015555,-0.7484154,0.6962211,-13.20427,48.57875,-12.73929,992.1645
7.602453232,-3.658343,4.002018,7.86677,-0.1334946,-0.7415869,0.6795931,-13.20427,48.57875,-12.73929,992.1645
7.610055923,-2.662564,2.641344,5.783387,-0.1623072,-0.7441157,0.6801016,-13.58834,49.24637,-11.39191,992.1645
7.617657661,-2.289147,0.2749538,2.964692,-0.1404714,-0.7330744,0.6841837,-13.58834,49.24637,-11.39191,992.1645
7.625260353,-3.533871,-0.2574839,2.168104,-0.1179586,-0.7318552,0.7000843,-13.58834,49.24637,-11.39191,992.1645
7.632862568,-4.342941,-0.4349631,2.22938,-0.1115584,-0.7341697,0.7019361,-13.58834,49.24637,-11.39191,992.1605
7.640465259,-4.778595,-0.4349631,1.494068,-0.1261809,-0.739565,0.6844529,-13.58834,49.24637,-11.39191,992.1605
7.648067951,-4.591886,-1.913957,0.9425846,-0.1002571,-0.7390999,0.6892134,-13.58834,49.24637,-11.39191,992.1605
7.655669689,-5.587666,-2.623874,2.413208,-0.0601636,-0.7356498,0.7099469,-13.58834,49.24637,-11.39191,992.1605
7.663272381,-6.832389,-1.20404,5.048075,-0.06285924,-0.7533156,0.6867937,-12.0546,48.93266,-12.27638,992.1605
7.673408985,-4.591886,-0.6124424,7.008906,-0.07410105,-0.7557697,0.6717914,-12.0546,48.93266,-12.27638,992.1622
7.681011677,-3.969524,-0.7899216,8.47953,-0.06639459,-0.7461599,0.689406,-12.0546,48.93266,-12.27638,992.1622
7.688614368,-3.098217,0.3341136,10.01143,-0.0554506,-0.7588654,0.6784145,-12.0546,48.93266,-12.27638,992.1622
7.696216583,-1.853493,1.990587,12.03354,-0.08203872,-0.7469246,0.6865374,-12.0546,48.93266,-12.27638,992.1622
7.703819275,-1.044423,2.227226,11.3595,-0.1247208,-0.7403839,0.6752493,-12.0546,48.93266,-12.27638,992.1622
7.711421490,-0.6710058,2.996302,9.09229,-0.1938732,-0.7291528,0.6714123,-12.82048,48.93275,-11.83638,992.1622
7.719023704,-1.168895,-1.677318,5.293179,-0.1605131,-0.7352677,0.6725971,-12.82048,48.93275,-11.83638,992.1622
7.726626396,-1.977966,-3.037992,4.496592,-0.1175288,-0.7271137,0.7084177,-12.82048,48.93275,-11.83638,992.1622
7.734229565,-3.409399,-1.558998,4.680419,-0.1277331,-0.732073,0.7015587,-12.82048,48.93275,-11.83638,992.1622
7.741831779,-4.342941,-2.446394,4.067659,-0.1418971,-0.7337631,0.6976953,-12.82048,48.93275,-11.83638,992.1622
7.749433517,-4.965303,-3.392951,3.332348,-0.1208603,-0.7338501,0.7000417,-12.82048,48.93275,-11.83638,992.1622
7.757036209,-6.521208,-4.043708,2.964692,-0.0934957,-0.730125,0.7169582,-12.43689,48.92826,-11.83287,992.1622
7.767172813,-9.44631,-1.381519,3.087244,-0.1102168,-0.7241992,0.7190971,-12.43689,48.92826,-11.83287,992.1622
7.774775028,-11.06445,-2.564714,2.903416,-0.1367019,-0.7216403,0.7042733,-12.43689,48.92826,-11.83287,992.1622
7.782377720,-12.8693,-3.925388,1.984276,-0.1194108,-0.6997618,0.7241084,-12.43689,48.92826,-11.83287,992.1622
7.789980411,-17.22583,-3.57043,1.800448,-0.1152858,-0.7069989,0.7659314,-12.43689,48.92826,-11.83287,992.1622
7.797583103,-22.20473,-4.162027,1.677896,-0.131381,-0.7110665,0.755733,-12.43689,48.92826,-11.83287,992.1639
7.805184841,-26.81021,-6.705896,-0.344211,-0.1150133,-0.6939144,0.7653044,-12.43689,48.92826,-11.83287,992.1639
7.812787533,-33.22054,-4.280347,-0.5893148,-0.1206018,-0.7114125,0.7619693,-12.4356,48.91937,-11.38585,992.1639
7.820390224,-38.19943,-4.398666,-2.550146,-0.1535952,-0.6975722,0.7629161,-12.4356,48.91937,-11.38585,992.1639
7.827992439,-44.54753,-5.93682,-5.246289,-0.1424529,-0.6919404,0.7567478,-12.4356,48.91937,-11.38585,992.1639
7.835595131,-51.64245,-5.995979,-7.084569,-0.1400709,-0.685374,0.7767153,-12.4356,48.91937,-11.38585,992.1599
7.843197346,-60.29329,-4.753625,-9.658159,-0.1589867,-0.6649684,0.7787544,-12.4356,48.91937,-11.38585,992.1599
7.850799561,-69.442,-6.350938,-12.23175,-0.1344469,-0.6680635,0.7945366,-12.4356,48.91937,-11.38585,992.1599
7.860936165,-82.5116,-4.635305,-13.33472,-0.137491,-0.6609102,0.7981133,-12.04813,48.88824,-10.04129,992.1599
7.868538856,-93.154,-3.215471,-16.27597,-0.1477341,-0.6638969,0.7884073,-12.04813,48.88824,-10.04129,992.1599
7.876141548,-104.1698,-2.446394,-18.11424,-0.1404236,-0.6614162,0.7952112,-12.04813,48.88824,-10.04129,992.1656
7.883744240,-116.4303,-0.7899216,-20.0138,-0.1403562,-0.6617725,0.8227347,-12.04813,48.88824,-10.04129,992.1656
7.891346455,-128.8776,3.055462,-21.17804,-0.1619212,-0.6588366,0.8238453,-12.04813,48.88824,-10.04129,992.1656
7.898948669,-142.6318,2.818823,-23.56781,-0.1338382,-0.6664785,0.8597856,-12.04813,48.88824,-10.04129,992.1656
7.906550884,-158.6887,4.534456,-22.89377,-0.1555859,-0.6241899,0.8498432,-12.42393,49.19917,-6.527161,992.1656
7.914153576,-177.7952,3.351261,-24.18057,-0.1959212,-0.6091289,0.8571244,-12.42393,49.19917,-6.527161,992.1656
7.921756268,-195.9682,1.635628,-26.87671,-0.2806985,-0.6089271,0.7834932,-12.42393,49.19917,-6.527161,992.1673
7.929358959,-212.2741,-4.812785,-35.39407,-0.3603771,-0.5863717,0.7485864,-12.42393,49.19917,-6.527161,992.1673
7.936960697,-226.6506,-13.56843,-47.28161,-0.3409833,-0.6146628,0.6835464,-12.42393,49.19917,-6.527161,992.1673
7.944563389,-240.2181,-26.05113,-54.26707,-0.1604642,-0.6137962,0.7129465,-12.42393,49.19917,-6.527161,992.1673
7.954699993,-269.5314,-6.824216,-58.06618,-0.1213051,-0.5700009,0.8313381,-13.1693,48.69865,0.1657066,992.1673
7.962302685,-309.1758,6.900846,-64.74527,-0.1747502,-0.7241994,0.7299279,-13.1693,48.69865,0.1657066,992.1633
7.969904900,-329.6516,11.98858,-77.30684,-0.2491989,-0.8573319,0.5764804,-13.1693,48.69865,0.1657066,992.1633
7.977507591,-336.2486,0.9848709,-95.32198,-0.2195413,-1.010662,0.4637204,-13.1693,48.69865,0.1657066,992.1633
7.985109806,-361.5165,-16.23062,-109.8444,-0.1648885,-1.434995,0.5689353,-13.1693,48.69865,0.1657066,992.1633
7.992712021,-352.5545,-43.38494,-116.646,-0.1243241,-1.502133,0.06180773,-13.1693,48.69865,0.1657066,992.1633
8.000314713,-314.0303,-49.24176,-127.6757,0.1122975,-1.694337,0.3584468,-13.1693,48.69865,0.1657066,992.1633
8.007917404,-299.2803,-46.81621,-115.6656,0.3961204,-1.64889,0.5461482,-14.60298,47.02432,9.518145,992.1633
8.015520096,-298.7202,-5.581861,-79.63533,0.4268406,-1.575978,0.3851623,-14.60298,47.02432,9.518145,992.1633
8.023122310,-280.7339,54.82024,-45.38205,0.1312371,-1.971477,0.6666092,-14.60298,47.02432,9.518145,992.1633
8.030724525,-245.3837,64.10832,-35.14896,-0.3526219,-1.948748,0.3214265,-14.60298,47.02432,9.518145,992.1633
8.038327217,-200.0758,20.33011,-67.44141,-0.6493191,-1.530089,-0.02372254,-14.60298,47.02432,9.518145,992.165
8.048463344,-186.695,-74.26633,-108.8027,-0.3401881,-1.360794,0.5825269,-14.60298,47.02432,9.518145,992.165
8.056066036,-207.1707,-102.8996,-102.7976,-0.09356409,-1.217126,0.6043181,-17.22553,41.28822,18.80134,992.165
8.063668728,-199.4534,-103.4912,-94.64794,-0.0006268645,-0.9927791,0.5103475,-17.22553,41.28822,18.80134,992.165
8.071271419,-183.8944,-106.0351,-92.80966,0.06502732,-0.7165839,0.4071832,-17.22553,41.28822,18.80134,992.165
8.078873157,-176.426,-119.7602,-90.84883,0.2293852,-0.3741277,0.314123,-17.22553,41.28822,18.80134,992.1633
8.086475849,-145.9925,-132.7162,-87.6012,0.6486059,-0.09330127,0.6683623,-17.22553,41.28822,18.80134,992.1633
8.094078541,-109.2109,-103.0771,-74.67197,1.521358,-0.4960944,2.630755,-17.22553,41.28822,18.80134,992.1633
8.101680755,-295.8573,41.98257,7.621666,1.554667,-2.136685,3.275388,-17.22553,41.28822,18.80134,992.1633
8.109287739,-252.7898,158.2315,124.2911,0.5765157,-3.139889,0.2658082,-16.01621,34.15508,23.56504,992.1633
8.116885662,125.4818,127.1726,112.0359,-0.684655,-1.226317,-0.4697725,-16.01621,34.15508,23.56504,992.1633
8.124487877,332.4793,153.3212,35.93117,-0.3835154,-0.5735154,1.213191,-16.01621,34.15508,23.56504,992.1633
8.132090568,283.0638,105.4018,24.53383,-0.339997,-0.1369379,1.138898,-16.01621,34.15508,23.56504,992.1633
8.142227173,193.8171,33.34525,34.88948,-0.6068254,0.1784728,0.9252559,-16.01621,34.15508,23.56504,992.1633
8.149829864,89.50925,-12.03027,84.58429,-0.1401661,-0.1281938,1.113858,-16.01621,34.15508,23.56504,992.1633
8.157432556,-9.757491,-20.25348,117.612,-0.02820889,-0.2361452,1.176876,-12.58924,27.43241,22.15931,992.165
8.165034771,-54.1319,-21.79163,124.7813,0.03821991,-0.514594,0.8404849,-12.58924,27.43241,22.15931,992.165
8.172636986,44.07682,-41.66931,125.149,0.06601009,-1.049635,0.1468661,-12.58924,27.43241,22.15931,992.165
8.180239200,160.7075,-36.99569,111.3006,0.1486463,-0.8124504,0.3527435,-12.58924,27.43241,22.15931,992.165
8.187841892,238.2538,17.96372,90.09913,0.4327826,-0.6711789,0.7293851,-12.58924,27.43241,22.15931,992.165
8.195444584,242.8592,60.38126,108.8496,0.4392805,-0.5138946,0.8551757,-12.58924,27.43241,22.15931,992.165
8.203047275,204.8329,73.69221,121.8401,0.1871408,-0.4505427,0.7639096,-8.412256,24.77727,23.94874,992.165
8.210649013,170.4163,53.75537,112.7712,0.05763159,-0.6307967,0.5741504,-8.412256,24.77727,23.94874,992.165
8.218251705,181.3699,30.26895,90.77316,0.1066986,-0.8954031,0.4492603,-8.412256,24.77727,23.94874,992.165
8.225854397,214.5418,26.0686,71.59378,0.2228685,-0.9427334,0.4360707,-8.412256,24.77727,23.94874,992.165
8.235991001,254.1862,45.23636,52.78206,0.3879001,-0.8623253,0.4671032,-8.412256,24.77727,23.94874,992.165
8.243593216,259.4763,60.49958,49.22806,0.4090509,-0.717038,0.4959287,-8.412256,24.77727,23.94874,992.165
8.251195907,246.4067,68.2495,41.81366,0.4138606,-0.6803424,0.5108747,-8.412256,24.77727,23.94874,992.165
8.258798599,232.9014,75.82195,33.48013,0.4328701,-0.8247421,0.5138258,-3.085481,24.21459,30.25017,992.165
8.266400337,229.7274,84.81424,26.06573,0.4383871,-0.9788563,0.5354055,-3.085481,24.21459,30.25017,992.165
8.274003029,231.3456,90.90769,17.7322,0.458596,-1.12971,0.5898698,-3.085481,24.21459,30.25017,992.165
8.281605720,234.2706,97.71106,5.660835,0.4657298,-1.236095,0.5919138,-3.085481,24.21459,30.25017,992.165
8.289208412,246.7801,105.6385,-12.29303,0.4534177,-1.298946,0.5289744,-3.085481,24.21459,30.25017,992.165
8.296810627,267.0069,119.3635,-25.65119,0.4732854,-1.263189,0.4907147,-3.085481,24.21459,30.25017,992.165
8.304412842,268.1271,128.5333,-35.33279,0.4074292,-1.12198,0.5110145,-2.461639,42.94339,21.64541,992.165
8.312015533,255.8666,126.581,-47.77182,0.4083892,-1.123633,0.4906811,-2.461639,42.94339,21.64541,992.165
8.319617748,247.3402,131.6688,-58.80149,0.4819181,-1.222412,0.495611,-2.461639,42.94339,21.64541,992.165
8.329754352,243.4194,143.0274,-69.58607,0.4781732,-1.263083,0.4902189,-2.461639,42.94339,21.64541,992.165
8.337357044,239.1251,148.1743,-76.51025,0.4790724,-1.284685,0.5147727,-2.461639,42.94339,21.64541,992.165
8.344959736,233.9595,151.2506,-82.20892,0.4803054,-1.302805,0.4954598,-2.461639,42.94339,21.64541,992.165
8.352561474,230.7232,152.6113,-88.15269,0.4965779,-1.278521,0.5148776,-9.056502,62.15697,-7.204496,992.165
8.360164165,224.3129,154.0311,-93.17732,0.5497472,-1.238408,0.5287936,-9.056502,62.15697,-7.204496,992.1609
8.367766857,215.5376,157.9948,-98.69215,0.5940895,-1.197891,0.5350194,-9.056502,62.15697,-7.204496,992.1609
8.375369072,207.0734,164.9165,-101.2657,0.6631824,-1.179258,0.5130655,-9.056502,62.15697,-7.204496,992.1609
8.382971763,195.2486,174.6187,-102.1849,0.6871586,-1.142699,0.5685225,-9.056502,62.15697,-7.204496,992.1609
8.390573978,179.1916,179.7656,-106.1678,0.6619814,-1.218638,0.5613158,-9.056502,62.15697,-7.204496,992.1609
8.398176193,171.5988,182.6053,-113.8886,0.676818,-1.348919,0.5516049,-9.056502,62.15697,-7.204496,992.1609
8.405778885,169.7317,183.8477,-124.5506,0.7332312,-1.415383,0.5762668,-13.91718,47.57373,-18.57304,992.1627
8.413381576,166.0598,187.9888,-142.627,0.7510843,-1.374495,0.5497396,-13.91718,47.57373,-18.57304,992.1627
8.423518181,167.3667,202.483,-165.6055,0.925053,-1.493574,0.4857168,-13.91718,47.57373,-18.57304,992.1627
8.431120872,168.9226,223.7213,-180.4956,0.9487628,-1.453396,0.4485258,-13.91718,47.57373,-18.57304,992.1627
8.438723087,165.3752,240.5227,-198.0818,0.9157951,-1.390314,0.3855421,-13.91718,47.57373,-18.57304,992.1627
8.446325302,156.5999,256.1408,-217.9352,0.9404861,-1.404814,0.3850873,-13.91718,47.57373,-18.57304,992.1609
8.453927994,147.5756,270.7533,-235.5214,0.8920121,-1.440709,0.3147509,-8.858142,29.90583,-9.83626,992.1609
8.461530208,143.2191,280.5147,-253.9042,0.8811354,-1.466303,0.2928668,-8.858142,29.90583,-9.83626,992.1609
8.469132900,137.5556,287.3181,-269.8359,0.8988575,-1.506299,0.269069,-8.858142,29.90583,-9.83626,992.1609
8.476735592,132.5145,291.1634,-281.7848,0.9062706,-1.516732,0.2267505,-8.858142,29.90583,-9.83626,992.1609
8.484337330,130.2117,292.0508,-288.7702,0.962073,-1.523906,0.1954734,-8.858142,29.90583,-9.83626,992.1609
