Time (s),Gyroscope X (deg/s),Gyroscope Y (deg/s),Gyroscope Z (deg/s),Accelerometer X (g),Accelerometer Y (g),Accelerometer Z (g),Magnetometer X (uT),Magnetometer Y (uT),Magnetometer Z (uT),Barometer (hPa)
0.002840042,0.08768743,-0.5529072,-0.3637089,-0.08388685,-0.705559,0.7004743,4.526254,43.06002,-13.38495,992.2396
0.010448932,0.2732717,-0.669907,-0.3021006,-0.07802883,-0.7055315,0.7052964,4.526254,43.06002,-13.38495,992.2396
0.018058300,-0.03650836,-0.4341606,-0.3017776,-0.07756703,-0.7007279,0.7083269,4.526254,43.06002,-13.38495,992.2396
0.028203487,-0.03648195,-0.492394,-0.1178901,-0.08088147,-0.7089853,0.7096217,4.526254,43.06002,-13.38495,992.2396
0.035811901,-0.03646702,-0.139405,0.004617541,-0.07702313,-0.7079496,0.7071793,4.526254,43.06002,-13.38495,992.2396
0.043421268,-0.2220023,-0.1393474,0.2493487,-0.0804201,-0.7084699,0.7067081,4.159354,43.06229,-12.93392,992.2396
0.051029682,-0.2837599,0.1545302,0.0656054,-0.09024107,-0.7036718,0.6966751,4.159354,43.06229,-12.93392,992.2396
0.058639049,-0.2215647,-0.08061983,0.004374139,-0.08386909,-0.7032006,0.706373,4.159354,43.06229,-12.93392,992.2396
0.066250324,-0.4068478,-0.1393411,0.1879553,-0.07758502,-0.716429,0.6840978,4.159354,43.06229,-12.93392,992.2396
0.073857307,0.6455118,0.8009926,0.1877398,-0.08873793,-0.6951399,0.7153674,4.159354,43.06229,-12.93392,992.2418
0.081465721,-0.716498,-0.1400938,0.06510861,-0.09810641,-0.7022042,0.684113,4.159354,43.06229,-12.93392,992.2418
0.089075088,0.3981589,-0.3160028,-0.2408385,-0.07897814,-0.7093853,0.703266,4.154826,43.4311,-12.93566,992.2418
0.096683502,0.3357587,-0.1983137,-0.424293,-0.09267703,-0.7041664,0.6947356,4.154826,43.4311,-12.93566,992.2418
0.104292869,0.2736312,-0.6681173,-0.7298943,-0.09260038,-0.7047475,0.7054347,4.154826,43.4311,-12.93566,992.2418
0.111897468,0.4590014,-0.7848607,-0.4842404,-0.08237769,-0.7027539,0.7122148,4.154826,43.4311,-12.93566,992.2378
0.119506836,0.2109936,0.2146569,-0.9122204,-0.09995148,-0.6999776,0.7017112,4.154826,43.4311,-12.93566,992.2378
0.129652023,-0.03674953,-1.253883,-1.155791,-0.07167971,-0.7035997,0.7135679,4.154826,43.4311,-12.93566,992.2378
0.137260437,0.1490298,-0.312739,-1.032344,-0.07708139,-0.7097763,0.6959368,4.533355,43.05981,-12.93854,992.2378
0.144869804,0.2107394,-1.017458,-0.8477281,-0.07651009,-0.7055987,0.7145347,4.533355,43.05981,-12.93854,992.2378
0.152478695,0.02493232,-0.07640743,-0.6022131,-0.08141698,-0.7055871,0.7067839,4.533355,43.05981,-12.93854,992.2401
0.160087585,0.2105563,-0.1936716,-0.3568718,-0.08049396,-0.7016976,0.7049196,4.533355,43.05981,-12.93854,992.2401
0.167696476,-0.03706185,-0.1347103,-0.5400054,-0.08824348,-0.7037238,0.7049358,4.533355,43.05981,-12.93854,992.2401
0.175305843,0.1487177,-0.369477,-0.661874,-0.08138453,-0.7099203,0.7057082,4.533355,43.05981,-12.93854,992.2401
0.182914257,0.3962502,-0.07551177,-0.6613273,-0.08630351,-0.7103689,0.6955118,4.533355,43.05981,-12.93854,992.2401
0.190523624,-0.1610266,-0.7217305,-0.5382114,-0.08680557,-0.701298,0.7054678,4.521726,43.42884,-13.38669,992.2401
0.198132038,0.1486477,-0.07470521,-0.6599279,-0.08874772,-0.7056103,0.6995392,4.521726,43.42884,-13.38669,992.2401
0.205741405,0.08646311,-0.5446807,-0.8427761,-0.08778735,-0.7008186,0.7045132,4.521726,43.42884,-13.38669,992.2401
0.213349819,-0.1611548,-0.3678494,-1.209172,-0.08629742,-0.7041822,0.7049091,4.521726,43.42884,-13.38669,992.2401
0.223495483,-0.09908281,-0.3085902,-1.024145,-0.08623568,-0.7114145,0.7042522,4.521726,43.42884,-13.38669,992.2401
0.231104374,0.6437365,-0.4259309,-1.267915,-0.08198269,-0.6973826,0.7060069,4.521726,43.42884,-13.38669,992.2401
0.238713264,-0.5326825,-0.6606265,-1.511495,-0.08235343,-0.7123177,0.7027382,3.773722,43.4338,-13.37743,992.2401
0.246322632,0.08678675,-1.130142,-1.510109,-0.0672942,-0.7126223,0.703581,3.773722,43.4338,-13.37743,992.2401
0.253931045,-0.3465178,0.3400235,-1.080481,-0.08675956,-0.7013608,0.7122835,3.773722,43.4338,-13.37743,992.2401
0.261540413,-0.2224522,-0.4832741,-1.446614,-0.08585171,-0.7069812,0.6951005,3.773722,43.4338,-13.37743,992.2401
0.269148826,-0.4080068,-0.482468,-1.261589,-0.08191632,-0.7022385,0.7093013,3.773722,43.4338,-13.37743,992.2401
0.276758194,-0.4693752,-0.3649543,-1.688663,-0.08200234,-0.7078395,0.6887181,3.773722,43.4338,-13.37743,992.2418
0.284367084,-0.4689524,-0.4817434,-1.442337,-0.07752053,-0.7069864,0.706719,4.166455,43.06207,-12.48751,992.2418
0.291975975,-0.5921524,-0.01135443,-1.318504,-0.08585962,-0.709353,0.6906623,4.166455,43.06207,-12.48751,992.2418
0.299584865,-0.3441553,-0.6578922,-1.562113,-0.07898577,-0.7088984,0.7027906,4.166455,43.06207,-12.48751,992.2418
0.307189941,-0.2200337,-0.06946576,-1.438321,-0.08773546,-0.7080374,0.7023957,4.166455,43.06207,-12.48751,992.2418
0.314798832,-0.52931,-1.303404,-1.865306,-0.06982491,-0.7072692,0.6954488,4.166455,43.06207,-12.48751,992.2418
0.324944019,-0.1571948,0.1082963,-1.55727,-0.08633924,-0.7060313,0.6961007,4.166455,43.06207,-12.48751,992.2418
0.332553387,-0.1571245,-1.008326,-1.678238,-0.07904032,-0.7064413,0.6979789,4.152253,43.0625,-13.38032,992.2418
0.340161800,-0.775905,-0.4783853,-1.554318,-0.07471403,-0.7048993,0.6935967,4.152253,43.0625,-13.38032,992.2418
0.347771168,0.2769968,-0.3604692,-1.369287,-0.08095959,-0.7122144,0.6934767,4.152253,43.0625,-13.38032,992.2418
0.355379581,-0.03270901,-0.6537837,-1.429186,-0.07755402,-0.7021753,0.7082929,4.152253,43.0625,-13.38032,992.2478
0.362988949,-0.0943338,-0.6532785,-1.611424,-0.07223724,-0.7125614,0.6904749,4.152253,43.0625,-13.38032,992.2478
0.370597362,0.3391528,-0.8876858,-1.365267,-0.07270567,-0.7068723,0.7008384,4.152253,43.0625,-13.38032,992.2478
0.378206730,-0.03251993,-0.5344905,-1.119206,-0.07555531,-0.7131893,0.7016878,4.152253,43.0625,-13.38032,992.2478
0.385815620,0.09124975,-0.8866598,-1.179398,-0.06828044,-0.7130899,0.7006564,3.77115,43.0652,-13.8221,992.2478
0.393424511,0.2150584,-0.5332993,-0.8112126,-0.07264917,-0.7117146,0.7026724,3.77115,43.0652,-13.8221,992.2478
0.401033401,0.02916944,-0.2390504,-0.6269207,-0.07703223,-0.7112731,0.7012579,3.77115,43.0652,-13.8221,992.2478
0.408642769,0.3385867,-0.5325716,-0.5651414,-0.07798694,-0.7141663,0.6997371,3.77115,43.0652,-13.8221,992.2478
0.418787956,0.09066398,-0.3556955,-0.5645661,-0.07939813,-0.7123398,0.7090439,3.77115,43.0652,-13.8221,992.2478
0.426396370,0.2144537,-0.2377104,-0.3193179,-0.07366367,-0.709761,0.6988308,3.77115,43.0652,-13.8221,992.2478
0.434005737,0.2142905,-0.1199288,-0.2577899,-0.07462529,-0.7050204,0.7067413,3.785351,43.06477,-12.92929,992.2443
0.441614151,-0.2191535,-0.1786316,-0.2575662,-0.07648134,-0.7142155,0.707028,3.785351,43.06477,-12.92929,992.2443
0.449223518,-0.2190637,-0.1197584,-0.1961733,-0.0755356,-0.7132162,0.7046089,3.785351,43.06477,-12.92929,992.2443
0.456832409,-0.2189545,0.1154696,-0.01244167,-0.07798309,-0.7084532,0.7081494,3.785351,43.06477,-12.92929,992.2443
0.464441299,-0.09493143,0.1741581,0.1711553,-0.07218045,-0.7145451,0.6962716,3.785351,43.06477,-12.92929,992.2443
0.472050190,0.4003669,0.05639941,-0.01272577,-0.07469669,-0.7068292,0.6935513,3.785351,43.06477,-12.92929,992.2443
0.479659557,0.09046709,0.1738854,-0.07396016,-0.07714118,-0.7049294,0.6936159,3.785351,43.06477,-12.92929,992.2461
0.487267971,0.3379377,-0.472513,-0.1350407,-0.07412951,-0.7112235,0.6997743,4.147725,43.43132,-13.38206,992.2461
0.494877338,0.7089336,-0.2959345,-0.1961599,-0.08339681,-0.7031766,0.7044218,4.147725,43.43132,-13.38206,992.2461
0.502485752,0.6464739,-0.589439,-0.1959366,-0.07363185,-0.7093279,0.7041973,4.147725,43.43132,-13.38206,992.2461
0.510091305,0.6458843,-0.1186716,0.1714763,-0.07362569,-0.7136252,0.6992269,4.147725,43.43132,-13.38206,992.2461
0.520236492,0.5831646,-0.2946744,-0.01213214,-0.07566056,-0.7025619,0.7004768,4.147725,43.43132,-13.38206,992.2443
0.527844906,0.5825763,-0.118005,0.2326917,-0.0726749,-0.7059612,0.7067032,4.147725,43.43132,-13.38206,992.2443
0.535454273,0.396341,-0.2354883,0.2324725,-0.07077395,-0.7082642,0.6973811,3.773722,43.4338,-13.37743,992.2443
0.543063164,0.6435235,-0.0001142216,0.1710648,-0.07077263,-0.7058833,0.7008457,3.773722,43.4338,-13.37743,992.2443
0.550672054,0.5191781,0.05853548,0.2931848,-0.08050423,-0.7059724,0.6975149,3.773722,43.4338,-13.37743,992.2443
0.558280945,0.4568388,-0.0002061821,0.2317007,-0.06587183,-0.7120814,0.6991993,3.773722,43.4338,-13.37743,992.2465
0.565890312,0.6421531,0.05849892,0.5374066,-0.07071269,-0.7093008,0.7051479,3.773722,43.4338,-13.37743,992.2465
0.573498726,0.5177702,-0.1178557,0.5370156,-0.07462885,-0.7078747,0.7022917,3.773722,43.4338,-13.37743,992.2465
0.581108093,0.3935433,0.05859183,0.5365097,-0.07120275,-0.7116832,0.7012004,4.168408,42.32465,-12.93044,992.2465
0.588716507,0.6407089,-0.05894716,0.6582854,-0.07756774,-0.707875,0.6984201,4.168408,42.32465,-12.93044,992.2465
0.596326351,0.6400858,0.05859216,0.6576844,-0.07804359,-0.7107534,0.6959218,4.168408,42.32465,-12.93044,992.2465
0.603934288,0.7632412,-0.05881758,0.6570071,-0.07655917,-0.7145858,0.6948458,4.168408,42.32465,-12.93044,992.2448
0.614079952,1.257219,0.0001642952,0.8398055,-0.08003272,-0.7026116,0.7000246,4.168408,42.32465,-12.93044,992.2448
0.621688843,1.503552,0.05899831,0.4718822,-0.08636274,-0.6998043,0.7011165,4.168408,42.32465,-12.93044,992.2448
0.629297733,0.6356507,-0.5287346,-0.1404877,-0.09511858,-0.6946461,0.7056921,4.154826,43.4311,-12.93566,992.2448
0.636907101,0.5112739,-0.5868122,-0.3238637,-0.0795098,-0.7002741,0.7088405,4.154826,43.4311,-12.93566,992.2448
0.644515514,0.4488254,-0.4687202,-0.3236739,-0.0727447,-0.7025301,0.7009405,4.154826,43.4311,-12.93566,992.2448
0.652124882,0.3245663,-0.1155318,-0.01752164,-0.07172614,-0.7078251,0.700808,4.154826,43.4311,-12.93566,992.2448
0.659733295,0.3860911,0.002171557,-0.0174859,-0.06727,-0.7117022,0.708472,4.154826,43.4311,-12.93566,992.2448
0.667342663,0.1381326,0.1197271,0.22717,-0.06780802,-0.7116364,0.7006865,4.154826,43.4311,-12.93566,992.2448
0.674951076,0.3236499,0.2960062,0.7164462,-0.07515185,-0.6997285,0.7078435,4.154826,43.4311,-12.93566,992.2448
0.682560444,0.07584745,0.23693,0.5934899,-0.07506261,-0.7060452,0.7125645,3.77825,43.06499,-13.3757,992.2413
0.690169334,-0.1717215,0.4128031,0.5317037,-0.06539136,-0.7068267,0.705649,3.77825,43.06499,-13.3757,992.2413
0.697778225,0.07591831,1.470156,0.8982386,-0.08727276,-0.7051412,0.7029468,3.77825,43.06499,-13.3757,992.2413
0.705387115,-0.4812511,0.3523241,0.7750534,-0.07167146,-0.7088528,0.7076011,3.77825,43.06499,-13.3757,992.2413
0.715528488,-0.109274,1.233213,0.9575883,-0.08434221,-0.711801,0.696436,3.77825,43.06499,-13.3757,992.2413
0.723137379,0.07637921,0.2917747,0.6506273,-0.08004349,-0.7006907,0.7010437,3.77825,43.06499,-13.3757,992.2453
0.730746746,0.01447663,0.5265781,0.8336188,-0.08145446,-0.7079187,0.6979641,3.773722,43.4338,-13.37743,992.2453
0.738355637,0.3856995,0.643455,0.6492481,-0.08588745,-0.7026436,0.6956894,3.773722,43.4338,-13.37743,992.2453
0.745964527,0.07581352,-0.06227541,0.5263359,-0.084854,-0.7012873,0.7069129,3.773722,43.4338,-13.37743,992.2453
0.753573418,0.3851674,-0.1797743,0.2810468,-0.07951513,-0.7097975,0.6949823,3.773722,43.4338,-13.37743,992.2453
0.761182785,0.5703743,-0.1207707,0.2808013,-0.07315271,-0.7064541,0.7071825,3.773722,43.4338,-13.37743,992.2436
0.768795490,0.3842283,0.05556868,0.4640836,-0.07654169,-0.7150862,0.6967818,3.773722,43.4338,-13.37743,992.2436
0.776400566,1.250351,-0.5321056,0.4025153,-0.07557999,-0.7079136,0.7052205,4.533355,43.05981,-12.93854,992.2436
0.784008980,0.5685301,-0.1202079,0.7082333,-0.07221814,-0.7078221,0.6998382,4.533355,43.05981,-12.93854,992.2436
0.791618347,1.063106,-0.4726937,0.5240768,-0.0731751,-0.711189,0.6973323,4.533355,43.05981,-12.93854,992.2436
0.799227238,1.123896,-0.3547831,0.7071876,-0.07307585,-0.7160897,0.7054952,4.533355,43.05981,-12.93854,992.2436
0.809372425,1.122407,-0.3544114,1.07347,-0.07217283,-0.715032,0.6967471,4.533355,43.05981,-12.93854,992.2418
0.816981792,1.554572,0.1159683,1.378383,-0.07410112,-0.7122152,0.7026726,4.533355,43.05981,-12.93854,992.2418
0.824590206,2.172192,0.1159698,1.438426,-0.08185667,-0.7085149,0.7096407,4.521726,43.42884,-13.38669,992.2418
0.832202911,2.108489,-0.001641719,1.192336,-0.08587368,-0.7074277,0.6911945,4.521726,43.42884,-13.38669,992.2418
0.839807987,2.168372,-0.2366077,0.5792678,-0.09414604,-0.6998783,0.6987439,4.521726,43.42884,-13.38669,992.2418
0.847417355,2.475755,-0.6475964,0.08915483,-0.09467231,-0.6917275,0.703809,4.521726,43.42884,-13.38669,992.2458
0.855025768,2.04016,-0.7057467,-0.2780997,-0.0966269,-0.6888748,0.7058398,4.521726,43.42884,-13.38669,992.2458
0.862635136,1.419348,-1.704026,-0.9508364,-0.08779616,-0.7012832,0.7025545,4.521726,43.42884,-13.38669,992.2458
0.870244026,1.665664,-1.702365,-1.133526,-0.08290242,-0.7012767,0.708358,4.521726,43.42884,-13.38669,992.2458
0.877852917,1.663998,-1.876987,-1.19355,-0.07848769,-0.7027146,0.7131577,3.782777,42.69617,-13.37396,992.2458
0.885461807,0.9816318,-1.522638,-1.069991,-0.06777592,-0.7083446,0.7100158,3.782777,42.69617,-13.37396,992.2458
0.893071175,1.352002,-0.6986692,-0.8242279,-0.07994754,-0.705587,0.7087197,3.782777,42.69617,-13.37396,992.2458
0.903216362,1.102573,-1.050501,-0.8230773,-0.06786186,-0.7020324,0.7057817,3.782777,42.69617,-13.37396,992.2458
0.910820961,0.9159839,-0.6381707,-0.8834905,-0.06639271,-0.704891,0.7037547,3.782777,42.69617,-13.37396,992.2458
0.918430328,1.472024,-0.3438047,-0.5767146,-0.07951456,-0.7040799,0.7029078,3.782777,42.69617,-13.37396,992.2458
0.926038742,1.470501,-0.3434623,-0.7598143,-0.07960247,-0.6953824,0.7016514,3.766622,43.43402,-13.82384,992.244
0.933648109,1.035796,-0.2254702,-0.820364,-0.08292459,-0.6926689,0.7168384,3.766622,43.43402,-13.82384,992.244
0.941256523,1.034781,-0.8128612,-0.7584024,-0.08345093,-0.6964313,0.7055542,3.766622,43.43402,-13.82384,992.244
0.948865890,1.033845,-0.69463,-0.8800844,-0.07236542,-0.6899894,0.7022051,3.766622,43.43402,-13.82384,992.244
0.956474304,0.4757146,0.2461346,-0.6958237,-0.08253336,-0.6810974,0.7185671,3.766622,43.43402,-13.82384,992.244
0.964083672,-0.08173434,-0.4004427,-0.7562608,-0.08491442,-0.6916742,0.7110344,3.766622,43.43402,-13.82384,992.244
0.971692562,-0.6385607,-0.3412127,-0.9390374,-0.07951233,-0.7036064,0.7038928,4.152253,43.0625,-13.38032,992.244
0.979301929,-0.1428863,-0.6347299,-0.6934171,-0.06634131,-0.7059143,0.710061,4.152253,43.0625,-13.38032,992.244
0.986913204,-0.6997912,0.3059968,-0.3868203,-0.05956866,-0.6981733,0.7170041,4.152253,43.0625,-13.38032,992.244
0.994519711,-0.94661,0.658049,-0.01932378,-0.06933054,-0.7053692,0.699385,4.152253,43.0625,-13.38032,992.244
1.004664898,-0.3265119,1.479664,0.2253975,-0.06406011,-0.6856705,0.7158731,4.152253,43.0625,-13.38032,992.244
1.012273311,-2.24484,2.59468,0.5312055,-0.08350527,-0.6806315,0.7190731,4.152253,43.0625,-13.38032,992.2479
1.019882679,-2.7377,2.35712,0.2859696,-0.08935805,-0.6830488,0.71176,3.390666,44.17392,-13.37629,992.2479
1.027491569,-2.363943,2.707535,-0.1425245,-0.09795193,-0.6800178,0.7377111,3.390666,44.17392,-13.37629,992.2479
1.035100460,-3.846895,2.411035,-0.7542964,-0.1165012,-0.6796299,0.7232639,3.390666,44.17392,-13.37629,992.2479
1.042709350,-4.709794,0.7634364,-1.548981,-0.08362009,-0.6895289,0.6896474,3.390666,44.17392,-13.37629,992.2479
1.050322532,-3.343838,2.2908,-1.425048,-0.08854765,-0.687775,0.7540089,3.390666,44.17392,-13.37629,992.2479
1.057927131,-4.268789,2.22942,-1.852026,-0.1091647,-0.6881922,0.7195941,3.390666,44.17392,-13.37629,992.2479
1.065536499,-6.125226,1.229406,-2.769774,-0.07258651,-0.6984572,0.7302528,3.390666,44.17392,-13.37629,992.2479
1.073144913,-6.249081,2.934527,-1.851367,-0.06132513,-0.7198943,0.7150487,3.77825,43.06499,-13.3757,992.2479
1.080754280,-5.69173,4.051675,-1.545232,-0.06680101,-0.7116737,0.7060341,3.77825,43.06499,-13.3757,992.2479
1.088362694,-6.372937,4.051675,-1.239096,-0.08137676,-0.7089778,0.708165,3.77825,43.06499,-13.3757,992.2479
1.098508358,-6.682576,3.169716,-1.484004,-0.07065045,-0.7227286,0.6960673,3.77825,43.06499,-13.3757,992.2479
1.106117248,-6.187153,2.993324,-1.36155,-0.06531339,-0.727424,0.6890957,3.77825,43.06499,-13.3757,992.2479
1.113721847,-5.010524,3.992878,-0.6268244,-0.06585148,-0.7168745,0.695678,3.77825,43.06499,-13.3757,992.2479
1.121331215,-5.072452,4.580851,-0.9329602,-0.08485071,-0.7012918,0.7073997,3.796979,42.69573,-12.48115,992.2479
1.128940105,-6.558721,3.110919,-0.9329602,-0.07123946,-0.7173515,0.6879197,3.796979,42.69573,-12.48115,992.2462
1.136548996,-5.072452,3.816486,-0.8105059,-0.06717972,-0.7184969,0.7126948,3.796979,42.69573,-12.48115,992.2462
1.144157886,-5.567875,4.051675,-0.2594616,-0.06001213,-0.7172981,0.6970809,3.796979,42.69573,-12.48115,992.2462
1.151767254,-6.311009,4.580851,0.2303556,-0.05704389,-0.7306808,0.6870035,3.796979,42.69573,-12.48115,992.2462
1.159379482,-5.444019,4.81604,0.8426271,-0.05064743,-0.7264309,0.7055553,3.796979,42.69573,-12.48115,992.2462
1.166985035,-5.567875,6.227174,1.761034,-0.0671284,-0.7314334,0.7026519,4.161307,42.32487,-13.37685,992.2462
1.174593448,-5.320163,6.227174,1.822261,-0.08540524,-0.7131169,0.680831,4.161307,42.32487,-13.37685,992.2462
1.182202816,-5.939442,5.286418,1.761034,-0.08479714,-0.7137548,0.6983418,4.161307,42.32487,-13.37685,992.2462
1.189815521,-6.496793,5.46281,1.883489,-0.0813316,-0.717617,0.7030926,4.161307,42.32487,-13.37685,992.2462
1.199956894,-6.063298,6.403566,2.005943,-0.07993615,-0.7122741,0.7012584,4.161307,42.32487,-13.37685,992.2462
1.207565784,-7.301855,6.991539,2.49576,-0.06373556,-0.7170881,0.7214649,4.161307,42.32487,-13.37685,992.2462
1.215174675,-8.726195,8.049891,3.78153,-0.04423376,-0.72554,0.7220802,4.161307,42.32487,-13.37685,992.2462
1.222784042,-9.531258,10.40178,5.128528,-0.04778079,-0.7144186,0.7150655,3.787924,43.43336,-12.48462,992.2462
1.230392456,-10.27439,13.34165,6.291843,-0.0565023,-0.7054951,0.7299555,3.787924,43.43336,-12.48462,992.2462
1.238001823,-12.62765,15.22316,6.720433,-0.07781442,-0.6867628,0.7631966,3.787924,43.43336,-12.48462,992.2462
1.245611191,-17.45802,17.16347,6.536752,-0.08514012,-0.6801212,0.7658474,3.787924,43.43336,-12.48462,992.2462
1.253219604,-20.61635,21.51447,6.230616,-0.09599862,-0.6735299,0.8211187,3.787924,43.43336,-12.48462,992.2445
1.260828495,-23.52695,22.04364,6.965342,-0.1636723,-0.6700921,0.7248496,3.787924,43.43336,-12.48462,992.2445
1.268437385,-30.15324,11.40134,4.761165,-0.07048118,-0.6835992,0.8479429,4.185183,42.69281,-11.59296,992.2445
1.276046753,-38.57543,19.22137,7.700068,-0.05004181,-0.7186797,0.8070213,4.185183,42.69281,-11.59296,992.2445
1.283655643,-39.19471,22.9256,9.536882,-0.1145773,-0.6940693,0.7735544,4.185183,42.69281,-11.59296,992.2445
1.293800831,-45.44942,24.16035,8.373567,-0.1616626,-0.6579627,0.8244588,4.185183,42.69281,-11.59296,992.2484
1.301410198,-55.54366,20.10333,6.475525,-0.1546277,-0.6694493,0.7715391,4.185183,42.69281,-11.59296,992.2484
1.309014797,-60.80753,19.92694,5.434663,-0.1312382,-0.6783354,0.7721124,4.185183,42.69281,-11.59296,992.2484
1.316623688,-64.70899,21.74966,4.699937,-0.1215746,-0.6788219,0.8372751,4.196415,43.42982,-10.321,992.2484
1.324232578,-72.88347,21.45567,4.455029,-0.1459561,-0.661626,0.772138,4.196415,43.42982,-10.321,992.2484
1.331845760,-80.81023,19.28017,2.06717,-0.1418492,-0.651207,0.747026,4.196415,43.42982,-10.321,992.2467
1.339450359,-89.23242,17.75144,0.2303556,-0.1299924,-0.6346655,0.8003955,4.196415,43.42982,-10.321,992.2467
1.347059727,-99.51245,20.16213,-3.93309,-0.1521,-0.6164691,0.7863948,4.196415,43.42982,-10.321,992.2467
1.354668140,-106.3245,23.57237,-7.606719,-0.2052908,-0.6124566,0.751378,4.196415,43.42982,-10.321,992.2467
1.362277508,-114.8086,21.22048,-14.52539,-0.2543451,-0.5756685,0.7263474,4.196415,43.42982,-10.321,992.2467
1.369885921,-127.1323,15.51715,-23.64823,-0.2566093,-0.5900251,0.6583411,4.975395,43.79258,-8.099967,992.2467
1.377495289,-148.869,6.521161,-27.32186,-0.1733904,-0.6552352,0.6712241,4.975395,43.79258,-8.099967,992.2467
1.385104179,-164.5367,0.7002301,-29.15868,-0.1317776,-0.7266824,0.6248935,4.975395,43.79258,-8.099967,992.2467
1.395249367,-160.0779,3.28731,-30.38322,-0.1017134,-0.7996508,0.519212,4.975395,43.79258,-8.099967,992.2467
1.402858734,-155.8049,7.579512,-31.36285,-0.1166778,-0.8158696,0.5827481,4.975395,43.79258,-8.099967,992.2467
1.410467148,-154.6902,5.756796,-32.89353,-0.1637629,-0.7898632,0.4741771,4.975395,43.79258,-8.099967,992.2467
1.418076515,-160.821,-0.358121,-38.22029,-0.1461394,-0.7989025,0.4835595,5.051548,44.5276,-2.746586,992.245
1.425686359,-165.2798,-2.063242,-40.05711,-0.1264081,-0.8700935,0.4325453,5.051548,44.5276,-2.746586,992.245
1.433294296,-163.6078,-4.415133,-40.73061,-0.1320646,-0.9049911,0.3373023,5.051548,44.5276,-2.746586,992.245
1.440907001,-156.3622,-6.767025,-41.77147,-0.1043435,-0.9145334,0.2584486,5.051548,44.5276,-2.746586,992.245
1.448512077,-146.7634,-8.001767,-40.60815,-0.03388624,-0.9370124,0.3820059,5.051548,44.5276,-2.746586,992.245
1.456120968,-149.3644,-2.651215,-37.73047,-0.07066269,-0.9483974,0.3119184,5.051548,44.5276,-2.746586,992.245
1.463730335,-141.5615,-3.239188,-37.42434,-0.1289712,-0.9602879,0.2157,3.666501,43.42807,3.399262,992.245
1.471338749,-136.5453,-7.94297,-39.19992,-0.1192241,-0.9807109,0.1932276,3.666501,43.42807,3.399262,992.245
1.478948116,-128.185,-13.8227,-40.91429,-0.09169105,-0.9416746,0.07996505,3.666501,43.42807,3.399262,992.245
1.489093304,-121.6826,-16.11579,-39.32238,0.05031366,-0.9437034,0.3309982,3.666501,43.42807,3.399262,992.245
1.496701717,-131.7769,-7.119808,-33.01598,-0.01920316,-1.007615,0.1571992,3.666501,43.42807,3.399262,992.2454
1.504313946,-119.2674,-10.76524,-32.40371,-0.03379939,-1.035291,-0.1038572,3.666501,43.42807,3.399262,992.2454
1.511915684,-96.10641,-16.58617,-30.38322,0.08871967,-1.009351,0.1757489,1.818746,42.33224,7.892432,992.2454
1.519525051,-99.26474,-5.120701,-22.91351,0.06725825,-1.027109,0.136552,1.818746,42.33224,7.892432,992.2454
1.527133465,-86.75531,-2.945201,-19.48479,0.009150161,-1.017921,-0.04634151,1.818746,42.33224,7.892432,992.2454
1.534742832,-75.48444,-8.883727,-17.28061,0.05538209,-1.006262,0.0587363,1.818746,42.33224,7.892432,992.2454
1.542351723,-71.76877,-7.884173,-13.36207,0.04416724,-0.9908916,-0.0002213884,1.818746,42.33224,7.892432,992.2454
1.549960613,-60.12633,-8.942524,-10.7293,0.04299212,-0.98443,-0.02197389,1.818746,42.33224,7.892432,992.2454
1.557569504,-54.98631,-7.178606,-7.239356,0.0296401,-0.9730129,0.03002217,1.818746,42.33224,7.892432,992.2454
1.565178871,-46.81184,-5.297092,-5.280087,-0.01338526,-0.9812248,-0.02630442,0.7810678,41.16961,12.3121,992.2454
1.572787285,-40.12363,-7.061011,-3.259592,-9.124834E-05,-0.9918014,-0.01302655,0.7810678,41.16961,12.3121,992.2454
1.580398083,-32.44457,-5.120701,-1.606459,-0.003504991,-1.007071,-0.03624375,0.7810678,41.16961,12.3121,992.2437
1.590541840,-19.31586,-2.651215,1.761034,-0.008643033,-1.028857,-0.03573797,0.7810678,41.16961,12.3121,992.2437
1.598150253,-11.69873,-0.8872965,2.863123,-0.03684697,-1.048677,-0.06957105,0.7810678,41.16961,12.3121,992.2437
1.605759621,1.55383,-1.063688,2.801896,-0.03945053,-1.048752,-0.1688929,0.7810678,41.16961,12.3121,992.2437
1.613368511,20.07026,0.4062437,4.21012,0.02716162,-0.9825037,0.009367526,0.8088512,40.06271,13.21012,992.2437
1.620977402,22.98087,8.226282,7.332705,-0.03087757,-0.9633104,-0.003827104,0.8088512,40.06271,13.21012,992.242
1.628586292,29.35944,3.992878,6.046935,-0.07908063,-1.006597,-0.0838204,0.8088512,40.06271,13.21012,992.242
1.636195660,40.01103,2.111365,5.189754,-0.028626,-1.055204,-0.08342674,0.8088512,40.06271,13.21012,992.242
1.643804073,56.42192,5.168823,6.046935,-0.01538545,-1.041212,-0.1172957,0.8088512,40.06271,13.21012,992.242
1.651413441,67.63086,6.344769,7.638841,-0.01714768,-1.076937,-0.06649959,0.8088512,40.06271,13.21012,992.242
1.659021854,73.63786,3.110919,9.230746,-0.03116707,-1.166494,-0.1074401,0.4206476,40.06563,12.32194,992.2459
1.666631222,84.78488,-4.121147,11.25124,-0.01021616,-1.270417,-0.1660489,0.4206476,40.06563,12.32194,992.2459
1.674239635,103.1155,-9.942078,13.51665,-0.003149723,-1.339799,-0.2208123,0.4206476,40.06563,12.32194,992.2459
1.684385300,147.9513,-9.354105,17.06782,0.02033946,-1.260564,-0.3029077,0.4206476,40.06563,12.32194,992.2459
1.691994190,186.1608,-3.356782,20.37409,0.006532376,-0.9624999,-0.5086153,0.4206476,40.06563,12.32194,992.2459
1.699603558,271.1877,-5.532282,13.57787,0.1558767,-0.1824068,-0.4871837,0.4206476,40.06563,12.32194,992.2442
1.707212448,234.0311,12.93006,12.41456,0.3982934,-0.7357151,1.106313,0.7252774,41.17132,8.804628,992.2442
1.714817524,63.85326,83.07522,63.72291,0.2293856,-1.03062,0.4180638,0.7252774,41.17132,8.804628,992.2442
1.722426414,162.6901,14.22361,98.4387,0.05593932,-1.325057,-0.5861796,0.7252774,41.17132,8.804628,992.2442
1.730035305,199.4134,9.343431,96.60188,0.2085117,-1.180523,0.9411362,0.7252774,41.17132,8.804628,992.2442
1.737644195,243.0106,38.62448,74.80502,0.1379251,-0.9126254,0.1152783,0.7252774,41.17132,8.804628,992.2442
1.745253563,273.8506,51.61868,94.64262,-0.009587351,-0.8243853,0.7584366,0.7252774,41.17132,8.804628,992.2408
1.752865791,237.3132,41.32915,108.1738,-0.2630847,-0.5508026,0.6875576,0.7252774,41.17132,8.804628,992.2408
1.760471344,181.702,5.051229,85.15241,-0.4444788,-0.4085898,0.6193376,1.724483,43.07251,2.532096,992.2408
1.768079758,132.4074,-9.706889,58.82474,-0.2471815,-0.7718484,0.657899,1.724483,43.07251,2.532096,992.2408
1.775689125,134.0795,-17.87971,55.8246,-0.2174826,-1.061241,0.4190769,1.724483,43.07251,2.532096,992.2408
1.785834312,195.8835,-8.413348,49.82434,-0.3001164,-1.052577,0.05229889,1.724483,43.07251,2.532096,992.2408
1.793443203,263.1991,-3.650769,40.94641,-0.2476245,-0.6745941,0.2150922,1.724483,43.07251,2.532096,992.2408
1.801056385,308.4064,8.226282,34.8237,-0.3446946,-0.2250132,0.4723443,1.724483,43.07251,2.532096,992.2408
1.808660984,269.1441,-6.061457,17.06782,-0.4516024,-0.1631893,0.6884521,4.651097,43.79354,-4.970506,992.2408
1.816270351,165.2911,-45.33804,1.699807,-0.6665881,-0.3169156,1.001688,4.651097,43.79354,-4.970506,992.2408
1.823878765,261.3412,-111.3086,7.455159,-0.5117862,0.2574985,1.195512,4.651097,43.79354,-4.970506,992.239
1.831488132,81.75041,-122.6565,-51.56781,-0.6804487,-0.005639879,1.607093,4.651097,43.79354,-4.970506,992.239
1.839096546,-1.976058,-66.50507,-84.99783,-0.3340269,-0.09725878,1.228103,4.651097,43.79354,-4.970506,992.239
1.846705914,-10.70789,-89.4948,-64.36428,0.358663,-0.7285512,1.944393,4.651097,43.79354,-4.970506,992.239
1.854314327,-62.97501,-83.67387,-29.2199,0.1442402,-0.6194971,1.246018,6.020309,43.78752,-12.96053,992.239
1.861923695,-69.849,-36.69484,-13.54575,0.3946268,-0.8260314,1.160715,6.020309,43.78752,-12.96053,992.2373
1.869532585,-55.72945,-16.52737,-5.402542,0.4078606,-0.9371675,0.8814045,6.020309,43.78752,-12.96053,992.2373
1.879677772,-13.37079,31.6276,15.9045,0.2084173,-0.9584156,0.7218487,6.020309,43.78752,-12.96053,992.2373
1.887287140,10.03795,61.08503,28.70098,0.005369553,-0.7955745,0.6382203,6.020309,43.78752,-12.96053,992.2373
1.894895554,16.04495,61.08503,28.82343,-0.1896071,-0.7028181,0.5767448,6.020309,43.78752,-12.96053,992.2373
1.902504921,8.923246,38.80087,20.06795,-0.3581431,-0.637209,0.5114938,6.020309,43.78752,-12.96053,992.2373
1.910109520,0.5629842,9.755012,7.149024,-0.3547561,-0.6157077,0.5392399,4.909931,43.42592,-12.49851,992.2395
1.917718887,-5.753658,-3.827161,1.577353,-0.2183801,-0.7041376,0.6285694,4.909931,43.42592,-12.49851,992.2395
1.925327301,-1.232924,-1.828053,0.3528099,-0.1717506,-0.7507744,0.5676827,4.909931,43.42592,-12.49851,992.2395
1.932936668,8.923246,-0.8284993,-0.6268244,-0.1136437,-0.7500456,0.6183532,4.909931,43.42592,-12.49851,992.2395
1.940545082,9.170958,-1.592864,-0.443143,-0.08215465,-0.7190685,0.6504727,4.909931,43.42592,-12.49851,992.2395
1.948154449,7.127338,-1.651661,1.20999,-0.06755281,-0.7351431,0.6339059,4.909931,43.42592,-12.49851,992.2378
1.955763340,8.861319,-1.122486,1.20999,-0.06722728,-0.7341576,0.6840841,5.678617,42.31429,-12.05614,992.2378
1.963372231,8.118184,-1.475269,1.822261,-0.05953132,-0.7196684,0.6931256,5.678617,42.31429,-12.05614,992.2378
1.970981121,7.003482,0.7002301,2.801896,-0.05522031,-0.7397415,0.7296295,5.678617,42.31429,-12.05614,992.2378
1.981126308,8.24204,4.522053,4.577483,-0.08279166,-0.7114351,0.7110409,5.678617,42.31429,-12.05614,992.2378
1.988735676,7.560833,5.756796,4.516256,-0.1126229,-0.6757625,0.7277052,5.678617,42.31429,-12.05614,992.2361
1.996344090,6.074564,6.285972,4.577483,-0.1490447,-0.6800069,0.7206011,5.678617,42.31429,-12.05614,992.2361
2.003953457,4.402512,4.16927,3.475394,-0.1509605,-0.6736794,0.6603811,5.655362,43.05236,-12.95242,992.2361
2.011561870,4.959863,3.052121,2.373306,-0.137999,-0.6882832,0.6910982,5.655362,43.05236,-12.95242,992.2361
2.019171238,6.136492,2.64054,1.20999,-0.1641314,-0.6580289,0.6725434,5.655362,43.05236,-12.95242,992.2361
2.026780128,6.693843,0.7002301,-0.6880516,-0.2003424,-0.680861,0.7443778,5.655362,43.05236,-12.95242,992.2326
2.034389019,7.870472,-3.474377,-3.5045,-0.1858774,-0.7064714,0.7670332,5.655362,43.05236,-12.95242,992.2326
2.041997909,3.535522,-7.413795,-7.423038,-0.1258596,-0.5844386,0.5424712,5.655362,43.05236,-12.95242,992.2326
2.049607277,0.2533448,-5.767471,-3.198364,-0.08422777,-0.6846029,0.6780806,5.655362,43.05236,-12.95242,992.2326
2.057216167,6.693843,-4.356336,-5.953586,-0.1026571,-0.768063,0.857916,5.650834,43.42118,-12.95416,992.2326
2.064825058,2.978171,-3.41558,-3.137137,-0.1269577,-0.6855933,0.6759743,5.650834,43.42118,-12.95416,992.2326
2.074970245,1.058407,-2.651215,-2.035049,-0.06833921,-0.7645743,0.8396974,5.650834,43.42118,-12.95416,992.2326
2.082579613,2.049253,1.170608,-2.21873,-0.09972986,-0.7083809,0.7234261,5.650834,43.42118,-12.95416,992.2326
2.090188026,-4.700884,0.9942165,0.1079013,-0.07968488,-0.6979372,0.612964,5.650834,43.42118,-12.95416,992.2326
2.097797394,-3.276544,5.46281,2.189625,-0.07161999,-0.6870952,0.5995165,5.650834,43.42118,-12.95416,992.2326
2.105405807,4.278656,8.990646,2.740669,-0.1463344,-0.663969,0.7121891,5.655362,43.05236,-12.95242,992.2326
2.113011360,5.888781,3.5225,-0.5655973,-0.1688932,-0.7319853,0.7307469,5.655362,43.05236,-12.95242,992.2365
2.120619774,2.792387,0.1710545,-0.8105059,-0.1689112,-0.6920247,0.6372114,5.655362,43.05236,-12.95242,992.2365
2.128229141,2.235036,0.465041,-1.055414,-0.1230556,-0.7302719,0.7630366,5.655362,43.05236,-12.95242,992.2365
2.135837555,7.808545,-0.7109047,-3.688182,-0.1254263,-0.7018799,0.6648667,5.655362,43.05236,-12.95242,992.2365
2.143446922,4.340584,-2.76881,-3.07591,-0.1181533,-0.6766144,0.5524222,5.655362,43.05236,-12.95242,992.2365
2.151055813,4.030945,-2.710012,-3.198364,-0.09641687,-0.681345,0.6748484,4.895729,43.42636,-13.39132,992.2331
2.158665180,5.33143,-2.827607,-3.382046,-0.1262135,-0.6840342,0.7169101,4.895729,43.42636,-13.39132,992.2331
2.168810367,4.216728,-5.649876,-3.994317,-0.1143167,-0.6961392,0.7369812,4.895729,43.42636,-13.39132,992.2331
2.176418781,2.668531,-6.64943,-4.851498,-0.05782328,-0.6667147,0.6578297,4.895729,43.42636,-13.39132,992.2331
2.184028148,0.005633359,-4.885512,-2.831002,-0.05430047,-0.6789482,0.7325072,4.895729,43.42636,-13.39132,992.2331
2.191636562,-1.852203,-3.062796,-1.422777,-0.04415523,-0.7180227,0.7441694,4.895729,43.42636,-13.39132,992.2331
2.199245930,-1.170996,-0.6521074,0.2915828,-0.05700829,-0.7140507,0.7151501,5.28136,43.05484,-12.9478,992.2331
2.206854820,-0.9852125,1.582189,1.332444,-0.07722405,-0.6671701,0.7329718,5.28136,43.05484,-12.9478,992.2331
2.214463711,-4.019678,1.99377,2.434533,-0.08018034,-0.6771539,0.7127966,5.28136,43.05484,-12.9478,992.2331
2.222072601,-5.629803,4.228067,2.740669,-0.1115409,-0.68305,0.7343432,5.28136,43.05484,-12.9478,992.2331
2.229681969,-5.939442,2.993324,3.291713,-0.112192,-0.6956965,0.6921729,5.28136,43.05484,-12.9478,992.2314
2.237290382,-4.886668,4.051675,3.35294,-0.1047697,-0.6896033,0.7214727,5.28136,43.05484,-12.9478,992.2314
2.244899750,-4.700884,4.757243,3.169259,-0.1312476,-0.6407692,0.6765729,5.28136,43.05484,-12.9478,992.2314
2.252508163,-8.292701,4.345662,1.516126,-0.1666494,-0.6571738,0.7329683,4.531401,43.79722,-12.49562,992.2314
2.260117531,-6.00137,0.8178247,0.04667418,-0.1674792,-0.6269729,0.6499242,4.531401,43.79722,-12.49562,992.2314
2.270262718,-11.57488,0.7590274,-2.831002,-0.1369267,-0.6600093,0.8178766,4.531401,43.79722,-12.49562,992.2339
2.277871609,-16.77682,-2.53362,-2.769774,-0.1276084,-0.7284538,0.665236,4.531401,43.79722,-12.49562,992.2339
2.285480499,-12.56572,-2.180837,-1.973822,-0.08017051,-0.7221534,0.7253772,4.531401,43.79722,-12.49562,992.2339
2.293089390,-16.71489,0.8766219,-0.3206887,-0.05010007,-0.7205063,0.7957788,4.531401,43.79722,-12.49562,992.2339
2.300698757,-19.87321,2.228959,2.005943,-0.1031075,-0.7356135,0.6892149,5.28136,43.05484,-12.9478,992.2339
2.308307171,-15.04284,4.345662,1.516126,-0.1146632,-0.6758438,0.7856694,5.28136,43.05484,-12.9478,992.2339
2.315912247,-23.58888,4.698445,0.4752642,-0.09594589,-0.6945695,0.8001726,5.28136,43.05484,-12.9478,992.2339
2.323521137,-28.54311,3.346108,0.7814,-0.1055745,-0.7279646,0.6937972,5.28136,43.05484,-12.9478,992.2339
2.331130504,-24.33202,11.28374,0.6589457,-0.07313577,-0.7235397,0.8319329,5.28136,43.05484,-12.9478,992.2339
2.338738918,-28.35733,15.57594,2.49576,-0.1288978,-0.6912452,0.8141568,5.28136,43.05484,-12.9478,992.2339
2.346350193,-36.34603,15.51715,0.7201728,-0.1556377,-0.7444156,0.7357031,5.283933,43.42344,-12.50313,992.2339
2.353956699,-33.37349,17.22227,1.454899,-0.1146579,-0.7219821,0.8688338,5.283933,43.42344,-12.50313,992.2322
2.364102840,-40.92869,30.86324,-1.728913,-0.1195114,-0.6240693,1.076182,5.283933,43.42344,-12.50313,992.2322
2.371711254,-48.36003,45.32737,2.128397,-0.3143547,-0.5916309,0.8063301,5.283933,43.42344,-12.50313,992.2322
2.379324436,-64.58513,12.87127,-5.769905,-0.1973724,-0.5307949,0.9587269,5.283933,43.42344,-12.50313,992.2322
2.386929035,-101.4322,12.1069,-5.463769,-0.134967,-0.621887,0.8728073,5.283933,43.42344,-12.50313,992.2322
2.394538402,-105.3956,17.51625,-4.667816,-0.1090106,-0.7033669,0.7947173,5.325522,43.42216,-9.888474,992.2344
2.402147293,-100.5033,20.7501,-6.320949,-0.07032995,-0.6612166,0.8285004,5.325522,43.42216,-9.888474,992.2344
2.409756183,-107.625,28.80533,-6.749539,-0.09936456,-0.5924132,0.8644393,5.325522,43.42216,-9.888474,992.2344
2.417365074,-119.639,31.45121,-10.60685,-0.1642982,-0.5041654,0.7857178,5.325522,43.42216,-9.888474,992.2344
2.424974918,-134.254,30.45165,-19.91338,-0.2352684,-0.4710783,0.8182432,5.325522,43.42216,-9.888474,992.2344
2.432582855,-165.0321,21.63206,-25.91364,-0.2393298,-0.5437934,0.691909,5.325522,43.42216,-9.888474,992.2344
2.440192222,-189.6175,2.346554,-32.58739,-0.2014533,-0.5776516,0.6464897,5.325522,43.42216,-9.888474,992.2344
2.447800636,-200.2072,3.28731,-38.15907,-0.1163877,-0.6622458,0.618485,5.008325,43.42289,-6.312608,992.2344
2.455410004,-200.0833,10.16659,-40.05711,-0.1931613,-0.7543046,0.555602,5.008325,43.42289,-6.312608,992.2344
2.465555191,-188.5028,4.639648,-47.95541,-0.2319178,-0.7316357,0.4537018,5.008325,43.42289,-6.312608,992.2344
2.473164081,-194.9433,-2.416026,-54.6904,-0.1555059,-0.7409689,0.4689242,5.008325,43.42289,-6.312608,992.2344
2.480773449,-202.2508,-2.886404,-57.56807,-0.1567798,-0.8031853,0.4109885,5.008325,43.42289,-6.312608,992.2326
2.488381863,-199.1544,-5.179498,-59.58857,-0.1808653,-0.8297579,0.3302144,5.008325,43.42289,-6.312608,992.2326
2.495991230,-196.4915,-8.354551,-63.38465,-0.1177446,-0.8671174,0.2796356,5.108278,43.78849,0.2541817,992.2326
2.503599644,-193.2712,-10.05967,-61.79274,-0.06275142,-0.9061792,0.2456408,5.108278,43.78849,0.2541817,992.2326
2.511205196,-189.5556,-11.5296,-59.2212,-0.03161806,-0.9268509,0.2263954,5.108278,43.78849,0.2541817,992.2326
2.518813610,-185.0348,-12.70555,-57.75175,-0.03741909,-0.9603135,0.1842668,5.108278,43.78849,0.2541817,992.2344
2.526422977,-185.3445,-12.29397,-53.03726,-0.02378368,-1.065233,0.1193642,5.108278,43.78849,0.2541817,992.2344
2.534031391,-165.4656,-18.23249,-50.52695,-0.02426892,-1.030162,-0.1237812,5.108278,43.78849,0.2541817,992.2344
2.541640758,-148.4355,-20.1728,-48.50645,0.07580024,-1.045318,0.08200155,2.92717,43.43126,7.873335,992.2344
2.549249172,-145.401,-12.76435,-40.48569,0.06167009,-1.069055,-0.03092804,2.92717,43.43126,7.873335,992.2344
2.559394836,-124.0359,-19.34964,-34.48544,0.1041535,-1.044948,-0.1797252,2.92717,43.43126,7.873335,992.2344
2.567003727,-108.1204,-18.40889,-28.85254,0.1327868,-1.03858,-0.09994887,2.92717,43.43126,7.873335,992.2344
2.574612617,-96.23027,-11.05923,-20.83178,0.1040206,-1.059446,-0.07390472,2.92717,43.43126,7.873335,992.2344
2.582221985,-80.19096,-8.236957,-16.23975,0.04170441,-1.030995,-0.2061545,2.92717,43.43126,7.873335,992.2344
2.589830398,-62.23187,-9.295308,-13.30084,0.05432038,-1.016727,-0.1148609,2.92717,43.43126,7.873335,992.2344
2.597443104,-54.24318,-5.414687,-9.504761,0.03015304,-0.9942967,-0.06787442,0.7712584,41.96871,12.30833,992.2326
2.605048180,-46.81184,-2.945201,-7.974082,-0.01928308,-1.018368,-0.08799721,0.7712584,41.96871,12.30833,992.2326
2.612657547,-36.90338,-5.061903,-7.851628,-0.0240885,-1.04518,-0.117317,0.7712584,41.96871,12.30833,992.2326
2.620265961,-26.87106,-5.35589,-7.116902,-0.0009641435,-1.07677,-0.1148388,0.7712584,41.96871,12.30833,992.2326
2.627875328,-14.7332,-4.238741,-5.953586,0.005372244,-1.092929,-0.1332874,0.7712584,41.96871,12.30833,992.2326
2.635484219,-1.604491,-1.651661,-3.137137,0.02220762,-1.116526,-0.116448,0.7712584,41.96871,12.30833,992.2326
2.643093586,9.41867,0.5238382,0.04667418,0.03502204,-1.123589,-0.1702855,0.4677787,39.6955,15.00211,992.2309
2.650702000,24.77678,1.053014,4.699937,0.1016493,-1.104347,-0.1270429,0.4677787,39.6955,15.00211,992.2309
2.660847187,43.0455,9.284633,13.08806,0.05881715,-1.097765,-0.06128232,0.4677787,39.6955,15.00211,992.2309
2.668456554,53.82095,10.69577,15.84328,0.02142314,-1.059608,-0.01040969,0.4677787,39.6955,15.00211,992.2309
2.676065922,55.24529,9.225836,17.19028,0.01462234,-1.086087,0.0255485,0.4677787,39.6955,15.00211,992.2309
2.683674335,59.58024,9.108241,19.9455,0.02993842,-1.137732,-0.005492717,0.4677787,39.6955,15.00211,992.2348
2.691283703,71.84196,9.813808,24.53753,0.06884167,-1.138773,0.002441119,-0.2873263,39.70068,14.56496,992.2348
2.698892116,77.29161,11.51893,32.31338,0.1302429,-1.111651,0.07366858,-0.2873263,39.70068,14.56496,992.2348
2.706501484,76.42462,13.28285,41.19132,0.1042802,-1.082198,-0.06616147,-0.2873263,39.70068,14.56496,992.2348
2.714106083,87.32392,12.34209,48.5998,0.1036462,-1.066944,0.005298551,-0.2873263,39.70068,14.56496,992.2348
2.721715450,95.12683,19.98574,53.74288,0.02202792,-1.08283,0.04845136,-0.2873263,39.70068,14.56496,992.2348
2.729323864,108.2555,23.27839,57.41651,-0.07979897,-1.090731,-0.01566236,-0.2873263,39.70068,14.56496,992.2348
2.736933231,122.0655,12.57728,56.43688,-0.1554768,-1.059903,-0.1097629,-0.2873263,39.70068,14.56496,992.2348
2.744542122,127.639,-3.827161,54.11024,-0.06861616,-1.109009,-0.1111415,0.7804489,40.06359,11.4245,992.2348
2.754687309,138.8479,-11.35321,62.131,-0.0007999982,-1.202131,-0.3349653,0.7804489,40.06359,11.4245,992.2348
2.762296677,205.4823,-16.05699,65.13113,0.1642309,-1.10856,-0.5771286,0.7804489,40.06359,11.4245,992.2331
2.769905090,226.0424,7.991093,74.43766,0.134061,-1.229886,-0.02555294,0.7804489,40.06359,11.4245,992.2331
2.777514458,290.4473,31.92159,87.72395,-0.263925,-0.8966597,-0.4225488,0.7804489,40.06359,11.4245,992.2331
2.785122871,347.6068,24.68952,89.25463,-0.1083948,-0.5367393,0.3145699,0.7804489,40.06359,11.4245,992.2331
2.792732239,267.3482,24.57193,84.72382,0.06387839,-0.5622698,0.8496798,2.174154,41.53153,6.105953,992.2331
2.800340652,240.1,22.86681,84.234,-0.2127457,-0.6387053,0.3982592,2.174154,41.53153,6.105953,992.2314
2.807950020,232.8544,3.934081,75.96834,-0.266278,-0.6646322,0.4165972,2.174154,41.53153,6.105953,992.2314
2.815558910,243.2583,-12.88194,54.72252,-0.2314615,-0.6825069,0.5166942,2.174154,41.53153,6.105953,992.2314
2.823167801,257.0063,-16.35098,46.76299,-0.2483766,-0.5895121,0.5102469,2.174154,41.53153,6.105953,992.2314
2.830776691,253.9099,-9.060119,40.21169,-0.349024,-0.5137219,0.7378306,2.174154,41.53153,6.105953,992.2314
2.838386059,252.6094,-8.354551,29.06834,-0.5263399,-0.3986969,0.5885903,4.676926,43.42406,-3.629552,992.2314
2.845994472,236.1985,-50.6298,7.761295,-0.4911689,-0.2767562,0.4966861,4.676926,43.42406,-3.629552,992.2314
2.856139660,141.7585,-100.3135,-15.07643,-0.6609297,-0.4980825,0.8737068,4.676926,43.42406,-3.629552,992.2314
2.863749027,299.1791,-152.9371,-26.46468,-0.2338577,-0.06413671,1.587924,4.676926,43.42406,-3.629552,992.2314
2.871357441,26.75847,-118.5407,-65.95619,-0.3039698,-0.1876573,1.02462,4.676926,43.42406,-3.629552,992.2314
2.878966808,108.8129,-38.63515,-68.89509,-0.6298698,-0.09367811,1.28078,4.676926,43.42406,-3.629552,992.2314
2.886575699,213.6568,-26.17013,-50.4045,-0.9425509,-0.2066229,2.580426,6.408513,43.7846,-12.07235,992.2331
2.894187450,61.25229,-73.91352,-69.50736,0.03753679,-0.1406747,0.6810575,6.408513,43.7846,-12.07235,992.2331
2.901793480,-134.9352,-175.6328,-63.32342,1.218873,-0.5375758,1.388104,6.408513,43.7846,-12.07235,992.2331
2.909402847,-244.7333,-153.2899,-27.44431,0.8511032,-0.8336786,2.329886,6.408513,43.7846,-12.07235,992.2331
2.917007923,-211.7877,62.61377,-7.178129,0.7402874,-0.9812284,0.5075397,6.408513,43.7846,-12.07235,992.2331
2.924616814,-9.035834,135.2284,52.82447,0.4653625,-1.931954,-0.3783034,6.408513,43.7846,-12.07235,992.2371
2.932225704,123.8614,112.7678,108.7861,-0.03098984,-0.8894926,0.5174987,6.408513,43.7846,-12.07235,992.2371
2.939838409,125.1618,114.3554,76.94797,-0.3238714,-0.1775149,0.8935395,4.14968,42.6939,-13.82499,992.2371
2.949979782,22.79509,73.02088,-0.1370073,-0.5325414,-0.2239371,0.6263369,4.14968,42.6939,-13.82499,992.2371
2.957589149,-44.14894,1.934973,-6.259722,-0.3522155,-0.6102067,0.4180928,4.14968,42.6939,-13.82499,992.2371
2.965197563,-78.02348,-40.10508,6.108162,-0.2839959,-0.7119862,0.607012,4.14968,42.6939,-13.82499,992.2371
2.972806931,-57.15379,-33.81377,-0.07578011,-0.2444174,-0.8112549,0.4358692,4.14968,42.6939,-13.82499,992.2371
2.980415344,-1.852203,-7.707781,-8.463899,-0.11543,-0.9525243,0.4368541,4.14968,42.6939,-13.82499,992.2371
2.988024712,31.89848,11.40134,0.8426271,-0.1019126,-0.7971882,0.5655334,4.909931,43.42592,-12.49851,992.2371
2.995633602,27.50161,11.46013,1.20999,-0.1771492,-0.6581209,0.6132383,4.909931,43.42592,-12.49851,992.2371
3.003242492,12.20542,-6.179052,-3.443273,-0.1739235,-0.6723314,0.640636,4.909931,43.42592,-12.49851,992.2371
3.010851383,3.225882,-19.70243,-5.463769,-0.08269563,-0.7268152,0.7043492,4.909931,43.42592,-12.49851,992.2353
3.018460750,3.659377,-16.99775,-8.708808,0.0147344,-0.7584836,0.7101097,4.909931,43.42592,-12.49851,992.2353
3.026069164,8.365895,-3.944755,-1.300323,0.00378922,-0.7753161,0.793077,4.909931,43.42592,-12.49851,992.2353
3.033680916,15.54953,4.698445,0.1691285,-0.1242208,-0.6564406,0.7623413,5.657935,43.42096,-12.50776,992.2353
3.041286945,12.76277,3.169716,-0.9329602,-0.163487,-0.6244057,0.7424754,5.657935,43.42096,-12.50776,992.2353
3.051432133,2.42082,-5.532282,-2.892229,-0.1334127,-0.6618396,0.7598556,5.657935,43.42096,-12.50776,992.2353
3.059041500,-3.152688,-3.768363,-1.116642,-0.06902843,-0.652979,0.6709049,5.657935,43.42096,-12.50776,992.2353
3.066650390,1.615758,0.5826355,0.7814,-0.04957975,-0.6777525,0.7139916,5.657935,43.42096,-12.50776,992.2353
3.074259281,4.650223,4.051675,0.3528099,-0.1425806,-0.6570723,0.7020935,5.657935,43.42096,-12.50776,992.2353
3.081868171,0.3152727,-0.5933101,-1.300323,-0.1717061,-0.6769723,0.6755707,4.907358,43.05732,-12.94317,992.2353
3.089477539,0.624912,-4.121147,-2.953456,-0.1110729,-0.6930274,0.7180355,4.907358,43.05732,-12.94317,992.2336
3.097085953,0.005633359,-0.9460938,-2.341184,-0.101244,-0.7059374,0.7181391,4.907358,43.05732,-12.94317,992.2336
3.104695320,0.3152727,-1.181283,-2.64732,-0.1309312,-0.7104902,0.701233,4.907358,43.05732,-12.94317,992.2336
3.112299919,-0.05629451,-2.004445,-3.137137,-0.1211306,-0.7104952,0.7147872,4.907358,43.05732,-12.94317,992.2336
3.119909286,0.3772005,-1.357675,-3.07591,-0.1290212,-0.7094699,0.6978323,4.907358,43.05732,-12.94317,992.2336
3.127521038,0.6868399,-2.063242,-4.055544,-0.1304531,-0.7071385,0.7047163,4.907358,43.05732,-12.94317,992.2319
3.135127067,0.5629842,-2.592418,-4.36168,-0.1223084,-0.7087954,0.6861057,4.90283,43.42614,-12.94491,992.2319
3.145272255,0.624912,-3.533174,-4.484135,-0.09893013,-0.7214784,0.6797724,4.90283,43.42614,-12.94491,992.2319
3.152880668,0.5629842,-4.06235,-3.994317,-0.0725098,-0.7319193,0.6958672,4.90283,43.42614,-12.94491,992.2319
3.160490036,1.429974,-3.003999,-2.708547,-0.06084361,-0.7375147,0.6902835,4.90283,43.42614,-12.94491,992.2319
3.168099403,2.111181,-0.6521074,-1.116642,-0.0623278,-0.7203395,0.7096899,4.90283,43.42614,-12.94491,992.2319
3.175708294,1.925397,0.2886491,-0.01455296,-0.06669919,-0.723726,0.7047768,4.90283,43.42614,-12.94491,992.2319
3.183317184,3.102027,2.287757,1.516126,-0.06113603,-0.735878,0.7214902,5.276832,43.42366,-12.94954,992.2319
3.190926075,3.349738,3.581297,2.373306,-0.0692769,-0.705919,0.7066762,5.276832,43.42366,-12.94954,992.2319
3.198535442,1.925397,5.404013,4.699937,-0.08908804,-0.6896122,0.743257,5.276832,43.42366,-12.94954,992.2319
3.206143856,2.235036,3.5225,2.618214,-0.06900346,-0.6777928,0.6406183,5.276832,43.42366,-12.94954,992.2319
3.213753223,0.5629842,4.345662,4.699937,-0.1072398,-0.669845,0.6693634,5.276832,43.42366,-12.94954,992.2302
3.221363067,0.2533448,4.404459,3.108032,-0.1132003,-0.6756429,0.7140777,5.276832,43.42366,-12.94954,992.2302
3.228971004,-1.542563,1.699784,2.373306,-0.1148133,-0.6759237,0.690223,4.526254,43.06002,-13.38495,992.2302
3.236579418,-1.109068,2.111365,2.250852,-0.1113057,-0.6869913,0.6913956,4.526254,43.06002,-13.38495,992.2302
3.246725082,-2.347626,1.817378,1.087536,-0.1385216,-0.6653648,0.7169618,4.526254,43.06002,-13.38495,992.2302
3.254333973,-4.391245,-0.5933101,-0.07578011,-0.1487447,-0.6940438,0.6735207,4.526254,43.06002,-13.38495,992.2302
3.261942863,-2.409554,-1.710458,-1.055414,-0.1271988,-0.696893,0.6971381,4.526254,43.06002,-13.38495,992.2302
3.269552231,-3.648111,-1.416472,-1.300323,-0.122097,-0.7095603,0.716765,4.526254,43.06002,-13.38495,992.2302
3.277160644,-3.771966,-1.710458,-1.239096,-0.1260288,-0.7338458,0.6762969,4.907358,43.05732,-12.94317,992.2302
3.284770012,1.368046,-1.416472,-1.36155,-0.1160896,-0.662176,0.6632853,4.907358,43.05732,-12.94317,992.2302
3.292378425,-1.604491,-0.1817291,-1.606459,-0.1160374,-0.6324174,0.7847503,4.907358,43.05732,-12.94317,992.2267
3.299987793,-10.5221,-1.416472,-1.422777,-0.1343388,-0.6969844,0.6455761,4.907358,43.05732,-12.94317,992.2267
3.307596207,-2.409554,-2.122039,-2.21873,-0.09994245,-0.6861703,0.7220004,4.907358,43.05732,-12.94317,992.2267
3.315201759,-3.771966,-0.8284993,-1.973822,-0.08717642,-0.6278822,0.7505313,4.907358,43.05732,-12.94317,992.2267
3.322810173,-10.58403,-0.8284993,-2.463639,-0.08536418,-0.6855339,0.7248171,4.907358,43.05732,-12.94317,992.2267
3.330419540,-10.02668,-0.2405264,-1.667686,-0.08053815,-0.7054495,0.6931447,4.921559,43.05688,-12.05036,992.2267
3.340564728,-8.60234,2.993324,-0.6268244,-0.08998511,-0.6411184,0.8208547,4.921559,43.05688,-12.05036,992.225
3.348173618,-17.70574,3.28731,-0.1982344,-0.1135403,-0.6672698,0.7473905,4.921559,43.05688,-12.05036,992.225
3.355782509,-22.84575,1.111811,-0.1982344,-0.08226464,-0.7455116,0.743352,4.921559,43.05688,-12.05036,992.225
3.363391399,-19.56357,4.110472,1.026309,-0.08293273,-0.7309723,0.7359066,4.921559,43.05688,-12.05036,992.225
3.371000767,-19.87321,9.519822,0.5977185,-0.1181241,-0.702678,0.8123394,4.921559,43.05688,-12.05036,992.225
3.378609180,-26.49949,8.873053,0.1079013,-0.1489143,-0.7246943,0.7516929,4.912504,43.79452,-12.05384,992.225
3.386218548,-24.45587,11.51893,-1.116642,-0.1313552,-0.7431763,0.7384541,4.912504,43.79452,-12.05384,992.225
3.393826961,-23.21732,14.3412,-0.443143,-0.103251,-0.6793783,0.8176326,4.912504,43.79452,-12.05384,992.225
3.401436329,-35.60289,18.51581,-0.2594616,-0.09981846,-0.740095,0.8122859,4.912504,43.79452,-12.05384,992.225
3.409045696,-35.41711,22.57282,0.1691285,-0.07962001,-0.7400598,0.7833893,4.912504,43.79452,-12.05384,992.225
3.416654110,-38.26579,29.3933,-0.6268244,-0.01547032,-0.6428192,0.9989189,4.912504,43.79452,-12.05384,992.2216
3.424263477,-52.0757,48.44362,2.128397,-0.2127174,-0.6952722,0.9803217,4.912504,43.79452,-12.05384,992.2216
3.434408665,-57.33957,16.98708,-0.443143,-0.2115344,-0.5208471,0.9600505,4.926705,43.79408,-11.16103,992.2216
3.442018986,-97.96425,16.39911,-4.606589,-0.1622241,-0.5618897,0.8720025,4.926705,43.79408,-11.16103,992.2216
3.449626922,-108.7397,19.45656,-3.382046,-0.1400208,-0.6445487,0.8119338,4.926705,43.79408,-11.16103,992.2216
3.457239151,-109.1113,19.33897,-7.36181,-0.1079845,-0.6207979,0.8433926,4.926705,43.79408,-11.16103,992.2159
3.464844704,-118.2766,27.10021,-8.035309,-0.1338823,-0.5673217,0.8190494,4.926705,43.79408,-11.16103,992.2159
3.472453117,-131.2814,27.15901,-12.99471,-0.1685557,-0.5086603,0.7963609,4.926705,43.79408,-11.16103,992.2159
3.480062485,-145.401,28.15856,-22.42369,-0.2420592,-0.5197762,0.7523913,5.716299,43.78784,-8.555625,992.2159
3.487671852,-170.4818,13.57683,-25.24014,-0.2689538,-0.5846491,0.6347072,5.716299,43.78784,-8.555625,992.2159
3.495280266,-189.8652,-1.357675,-36.13857,-0.1800483,-0.5986087,0.6969542,5.716299,43.78784,-8.555625,992.2181
3.502889156,-199.9594,1.934973,-39.75097,-0.1165027,-0.7282344,0.6563843,5.716299,43.78784,-8.555625,992.2181
3.510494232,-195.9961,5.815594,-40.36324,-0.142953,-0.7561598,0.5103441,5.716299,43.78784,-8.555625,992.2181
3.518102646,-185.3445,8.402674,-44.15932,-0.1748188,-0.7951078,0.5564428,5.716299,43.78784,-8.555625,992.2181
3.525712013,-179.3375,11.28374,-47.77172,-0.1877346,-0.7279557,0.5318263,4.682073,44.16126,-2.74022,992.2181
3.535857201,-192.5281,2.581743,-55.48635,-0.1519462,-0.702356,0.4732084,4.682073,44.16126,-2.74022,992.2125
3.543466091,-205.0375,1.934973,-59.64979,-0.09315902,-0.7588795,0.4017636,4.682073,44.16126,-2.74022,992.2125
3.551075458,-209.6821,-1.24008,-59.2212,-0.04616051,-0.8303231,0.3622062,4.682073,44.16126,-2.74022,992.2125
3.558683872,-206.4619,-0.1229319,-57.50684,-0.045552,-0.8714669,0.3242275,4.682073,44.16126,-2.74022,992.2125
3.566293239,-203.2416,-0.5345128,-56.09862,-0.104764,-0.9006166,0.214464,4.682073,44.16126,-2.74022,992.2125
3.573901653,-201.198,-8.060565,-54.44548,-0.07730162,-0.9447848,0.12214,4.052751,44.16256,4.730372,992.2125
3.581511021,-192.2804,-14.29308,-55.05776,-0.05486327,-0.9656232,0.1092928,4.052751,44.16256,4.730372,992.209
3.589119434,-185.8399,-16.52737,-52.18008,-0.01215666,-0.9674603,0.1040286,4.052751,44.16256,4.730372,992.209
3.596728802,-187.9454,-20.76078,-50.09836,0.02174871,-1.013637,0.02864832,4.052751,44.16256,4.730372,992.209
3.604337692,-182.0004,-20.81957,-44.83282,0.03104362,-1.08653,-0.06079045,4.052751,44.16256,4.730372,992.209
3.611947060,-164.6606,-22.3483,-41.03674,0.03483669,-1.136395,-0.1428268,4.052751,44.16256,4.730372,992.209
3.619555950,-139.7655,-21.11356,-36.13857,0.07270047,-1.133066,-0.1391647,4.052751,44.16256,4.730372,992.2112
3.629701137,-119.9486,-17.9973,-28.42395,0.1018658,-1.098256,-0.1590419,1.87711,42.69912,11.84457,992.2112
3.637310028,-104.219,-14.11668,-23.21964,0.07161838,-1.071738,-0.1445364,1.87711,42.69912,11.84457,992.2112
3.644919395,-93.44352,-9.942078,-17.58674,0.05338468,-1.093985,-0.215518,1.87711,42.69912,11.84457,992.2112
3.652527809,-75.05094,-10.64764,-15.19888,0.006849923,-1.064918,-0.2373414,1.87711,42.69912,11.84457,992.2112
3.660137176,-58.82584,-10.76524,-13.36207,0.02221226,-1.058296,-0.2543566,1.87711,42.69912,11.84457,992.2112
3.667745590,-45.57328,-12.29397,-10.36194,0.03415758,-1.022145,-0.2336422,1.87711,42.69912,11.84457,992.2112
3.675354958,-33.6212,-9.23651,-5.402542,0.09198318,-1.029326,-0.1631891,0.4612975,40.80173,15.4433,992.2112
3.682963848,-26.43756,-3.768363,3.169259,0.1199104,-1.049156,-0.2252416,0.4612975,40.80173,15.4433,992.2112
3.690572739,-15.22862,-1.24008,10.82265,0.1100943,-1.094593,-0.2306081,0.4612975,40.80173,15.4433,992.2112
3.698181629,4.526368,0.4062437,15.84328,0.08518379,-1.086113,-0.2414047,0.4612975,40.80173,15.4433,992.2095
3.705790996,20.13219,2.581743,19.57813,0.05816982,-1.050466,-0.1663278,0.4612975,40.80173,15.4433,992.2095
3.713395595,27.9351,2.052567,22.2109,0.01691244,-1.064804,-0.184342,0.4612975,40.80173,15.4433,992.2095
3.721004486,41.24959,1.876176,23.31299,0.003376425,-1.108413,-0.2354102,-0.2356677,38.96173,17.24686,992.2095
3.731150150,64.47254,3.816486,24.04771,-0.02467963,-1.151025,-0.2054986,-0.2356677,38.96173,17.24686,992.2095
3.738758564,76.67233,3.463702,24.29262,-0.05935609,-1.201869,-0.2331878,-0.2356677,38.96173,17.24686,992.2095
3.746367931,91.28731,1.347,23.06808,-0.1144553,-1.260829,-0.3495272,-0.2356677,38.96173,17.24686,992.2095
3.753976345,113.5813,-0.2993237,19.08832,-0.2014828,-1.337492,-0.4728362,-0.2356677,38.96173,17.24686,992.2095
3.761585712,147.5797,-6.825822,12.72069,-0.2171198,-1.329059,-0.6220093,-0.2356677,38.96173,17.24686,992.2095
3.769194126,184.6745,-19.70243,10.14915,-0.09210535,-1.278304,-0.5166638,0.491035,38.95743,15.89839,992.2095
3.776803493,210.3127,-16.88016,15.6596,-0.0488839,-1.203737,-0.4855674,0.491035,38.95743,15.89839,992.2095
3.784412384,260.66,-10.88283,27.29275,0.06608603,-0.9361,-0.569845,0.491035,38.95743,15.89839,992.2095
3.792021275,340.8566,-11.35321,29.92552,0.3368952,-0.1981104,-0.3746041,0.491035,38.95743,15.89839,992.2095
3.799630165,331.1339,0.465041,33.10933,0.6711298,-0.6217998,0.8953921,0.491035,38.95743,15.89839,992.2095
3.807239532,135.1322,80.42934,85.15241,0.4447184,-0.9562927,0.7033964,0.491035,38.95743,15.89839,992.2095
3.814847946,214.4618,53.44139,131.6238,0.3653192,-1.152447,-0.9883786,0.491035,38.95743,15.89839,992.2095
3.824994087,289.7661,72.90329,144.5427,-0.09136529,-1.071464,0.7518595,1.077977,41.1695,7.460787,992.2117
3.832602501,388.1695,77.60707,101.0715,-0.2371005,-0.5839925,0.2429378,1.077977,41.1695,7.460787,992.2117
3.840211868,375.9697,54.02937,92.8058,-0.261256,-0.4739023,0.7760247,1.077977,41.1695,7.460787,992.2117
3.847820282,288.0941,13.69443,94.94875,-0.2955014,-0.2532215,0.4571564,1.077977,41.1695,7.460787,992.2117
3.855429649,188.6379,-25.46456,67.0904,-0.4933967,-0.3445405,0.7249653,1.077977,41.1695,7.460787,992.2117
3.863038540,193.6541,-39.28192,39.90555,-0.7361757,-0.5661959,0.4174149,1.077977,41.1695,7.460787,992.21
3.870647430,279.0526,-37.69439,20.74145,-1.046282,-0.3302653,0.3242061,3.947651,43.05977,-2.72575,992.21
3.878256321,309.7688,-59.56698,-21.50528,-0.9432655,-0.054648,0.7154949,3.947651,43.05977,-2.72575,992.21
3.885865688,246.974,-99.72553,-60.62943,-0.4662892,-0.04120828,0.8375216,3.947651,43.05977,-2.72575,992.21
3.893474102,139.7768,-132.8284,-76.30357,-0.04843095,-0.294076,0.6114562,3.947651,43.05977,-2.72575,992.21
3.901083469,136.6804,-161.1099,-73.91572,0.4425015,-0.1754646,1.223288,3.947651,43.05977,-2.72575,992.21
3.908691883,126.2146,-109.4859,-50.03713,-0.337983,-0.1556422,1.792625,3.947651,43.05977,-2.72575,992.2083
3.916297436,81.19306,4.933634,-48.07786,-0.3470802,-0.2120668,1.880006,6.03451,43.78708,-12.06772,992.2083
3.926442623,-9.778969,-89.96518,-43.79196,0.541854,-0.3811168,1.205964,6.03451,43.78708,-12.06772,992.2083
3.934051037,-89.41821,-142.6475,-29.77095,1.078068,-0.6238271,1.705719,6.03451,43.78708,-12.06772,992.2083
3.941660404,-121.6207,-46.92557,-1.116642,0.8333065,-0.7364236,1.760123,6.03451,43.78708,-12.06772,992.2083
3.949268818,-122.9212,107.1821,19.57813,0.5814534,-0.9036818,1.039999,6.03451,43.78708,-12.06772,992.2048
3.956878185,-62.66537,165.215,72.66207,0.2010573,-1.246702,0.3148665,6.03451,43.78708,-12.06772,992.2048
3.964487076,14.86832,138.2859,101.5613,-0.4205737,-0.9377937,0.05646685,3.785351,43.06477,-12.92929,992.2048
3.972095966,54.56408,98.12732,57.72265,-0.7577361,-0.4206512,0.5145005,3.785351,43.06477,-12.92929,992.2048
3.979704857,26.8204,40.68238,-0.5655973,-0.5131258,-0.3409213,0.4651713,3.785351,43.06477,-12.92929,992.2048
3.987314224,-39.19471,1.170608,-4.606589,-0.2952065,-0.5744369,0.643441,3.785351,43.06477,-12.92929,992.203
3.994922638,-71.64491,-18.23249,5.0673,-0.2743857,-0.7205938,0.5073897,3.785351,43.06477,-12.92929,992.203
4.002532005,-49.28895,-26.22892,-3.382046,-0.2143967,-0.8358421,0.3171997,3.785351,43.06477,-12.92929,992.203
4.010141372,-6.620648,-15.8806,-9.810896,-0.07363222,-0.8584827,0.4995845,3.785351,43.06477,-12.92929,992.203
4.020285606,11.40036,11.34254,-1.116642,-0.09137487,-0.7339596,0.6307209,4.185183,42.69281,-11.59296,992.203
4.027894974,5.455286,8.108687,-2.096276,-0.1920164,-0.7226951,0.4793922,4.185183,42.69281,-11.59296,992.207
4.035504341,8.737463,-8.589741,-6.565857,-0.1195177,-0.7679678,0.5137703,4.185183,42.69281,-11.59296,992.207
4.043112755,12.76277,-8.942524,-5.341315,-0.02471271,-0.7724258,0.6000529,4.185183,42.69281,-11.59296,992.207
4.050726414,15.42567,-6.179052,-1.055414,-0.04117416,-0.7684007,0.6124569,4.185183,42.69281,-11.59296,992.207
4.058331013,18.08857,-7.884173,-0.1982344,-0.08846685,-0.7467836,0.6123787,4.185183,42.69281,-11.59296,992.207
4.065939903,17.40736,-13.23473,-0.1370073,-0.06026997,-0.7207585,0.6536618,4.924132,43.42548,-11.6057,992.207
4.073548794,14.74447,-12.47036,0.9038543,-0.06970785,-0.7202954,0.6951426,4.924132,43.42548,-11.6057,992.207
4.081158161,15.92109,-9.765686,0.4140371,-0.09542638,-0.693465,0.7339665,4.924132,43.42548,-11.6057,992.207
4.088766575,13.32012,-7.648984,-0.07578011,-0.1211468,-0.674733,0.7614003,4.924132,43.42548,-11.6057,992.207
4.096375942,8.427824,-9.118916,-1.973822,-0.1407853,-0.6861089,0.7130856,4.924132,43.42548,-11.6057,992.207
4.103984356,6.508059,-11.5884,-3.443273,-0.09039439,-0.7027014,0.7478307,4.924132,43.42548,-11.6057,992.207
4.111589908,4.836007,-8.707335,-3.137137,-0.06836579,-0.7117357,0.7625337,4.905404,43.79474,-12.50024,992.207
4.121735096,5.207574,-3.709566,-2.64732,-0.111671,-0.7135625,0.7458035,4.905404,43.79474,-12.50024,992.207
4.129343509,3.28781,-5.473485,-2.708547,-0.08033171,-0.7009659,0.7302577,4.905404,43.79474,-12.50024,992.207
4.136952877,2.296964,-3.062796,-2.035049,-0.08737643,-0.7118631,0.751,4.905404,43.79474,-12.50024,992.207
4.144561767,2.358892,-1.004891,-1.545232,-0.09330592,-0.7032154,0.7473557,4.905404,43.79474,-12.50024,992.207
4.152170658,-0.6136453,-0.9460938,-0.9941873,-0.07713458,-0.715614,0.7527757,4.905404,43.79474,-12.50024,992.2109
4.159779548,-1.294852,1.405797,0.6589457,-0.06530118,-0.7257264,0.7660764,4.905404,43.79474,-12.50024,992.2109
4.167388916,-3.028832,3.640094,2.005943,-0.04798216,-0.7229133,0.7460341,3.771769,44.17122,-12.93451,992.2109
4.174997330,-3.648111,6.75635,3.475394,-0.09694876,-0.7081654,0.7039295,3.771769,44.17122,-12.93451,992.2109
4.182606697,-4.515101,5.639202,3.414167,-0.1008432,-0.7091516,0.7010167,3.771769,44.17122,-12.93451,992.2109
4.190215111,-4.762813,5.697999,3.046804,-0.1036957,-0.7216597,0.6929555,3.771769,44.17122,-12.93451,992.2092
4.197824478,-3.833894,5.639202,2.92435,-0.1067653,-0.7143336,0.6795173,3.771769,44.17122,-12.93451,992.2092
4.205432892,-3.771966,4.345662,2.740669,-0.09456141,-0.7228535,0.6777564,3.771769,44.17122,-12.93451,992.2092
4.215579033,-2.781121,4.286864,2.49576,-0.09709569,-0.7203548,0.6651745,4.538501,43.797,-12.04921,992.2092
4.223187446,-2.285698,3.404905,2.250852,-0.1043758,-0.7180644,0.6686969,4.538501,43.797,-12.04921,992.2092
4.230796814,-2.347626,2.699338,1.883489,-0.09551372,-0.723844,0.6792019,4.538501,43.797,-12.04921,992.2131
4.238406181,-2.037986,2.758135,2.250852,-0.08819166,-0.7228559,0.6864693,4.538501,43.797,-12.04921,992.2131
4.246014595,-2.099914,2.581743,2.250852,-0.08186492,-0.7256588,0.6848907,4.538501,43.797,-12.04921,992.2131
4.253623485,-2.471481,2.993324,2.740669,-0.07167131,-0.7298205,0.6788656,4.538501,43.797,-12.04921,992.2131
4.261232853,-2.347626,3.757689,3.475394,-0.0837837,-0.7376276,0.6719648,4.171601,43.79927,-11.59818,992.2131
4.268841266,-1.109068,4.698445,3.414167,-0.110565,-0.7316514,0.6684295,4.171601,43.79927,-11.59818,992.2131
4.276450634,-1.294852,3.581297,3.046804,-0.1203618,-0.7154493,0.6776553,4.171601,43.79927,-11.59818,992.2131
4.284059048,-1.04714,2.934527,2.434533,-0.1260937,-0.7251796,0.6784484,4.171601,43.79927,-11.59818,992.2131
4.291668415,-0.1182224,2.522946,1.63858,-0.1373125,-0.7171435,0.6816509,4.171601,43.79927,-11.59818,992.2131
4.299277305,0.3152727,0.9942165,0.3528099,-0.1500343,-0.7147803,0.6701237,4.171601,43.79927,-11.59818,992.2131
4.306886196,0.5629842,-1.063688,-1.177869,-0.1466431,-0.7175879,0.6651603,4.171601,43.79927,-11.59818,992.2131
4.317027569,1.244191,-2.827607,-2.21873,-0.1242043,-0.722225,0.6746063,4.1574,43.7997,-12.49099,992.2114
4.324635982,2.111181,-3.121593,-2.953456,-0.1281246,-0.718887,0.6737428,4.1574,43.7997,-12.49099,992.2114
4.332245350,2.482748,-4.121147,-3.994317,-0.1408204,-0.7089347,0.6765154,4.1574,43.7997,-12.49099,992.2114
4.339854240,2.358892,-5.532282,-5.157633,-0.1315626,-0.7126798,0.6763514,4.1574,43.7997,-12.49099,992.2114
4.347463608,2.544676,-6.590633,-5.524996,-0.1022111,-0.7240629,0.6938609,4.1574,43.7997,-12.49099,992.2114
4.355072021,1.801542,-5.826268,-5.21886,-0.08414745,-0.7258863,0.7063307,4.1574,43.7997,-12.49099,992.2114
4.362681389,1.863469,-4.591525,-4.484135,-0.07640806,-0.7267055,0.7008912,4.543028,43.42818,-12.04747,992.2114
4.370289802,2.235036,-3.650769,-3.871863,-0.1007817,-0.7073295,0.7127461,4.543028,43.42818,-12.04747,992.2114
4.377899170,1.987325,-3.356782,-4.484135,-0.126621,-0.6941538,0.7147284,4.543028,43.42818,-12.04747,992.2114
4.385507583,-0.2420781,-5.826268,-5.769905,-0.1043235,-0.6985978,0.7032405,4.543028,43.42818,-12.04747,992.2114
4.393116951,-1.666419,-5.591079,-5.402542,-0.0564072,-0.7189678,0.7257432,4.543028,43.42818,-12.04747,992.2097
4.400726318,-2.719193,-2.651215,-3.626955,-0.03646646,-0.7211553,0.7279627,4.543028,43.42818,-12.04747,992.2097
4.410871506,-4.391245,-0.1229319,-1.667686,-0.04961335,-0.7298408,0.7103366,4.531401,43.79722,-12.49562,992.2097
4.418480396,-5.753658,0.8178247,-0.5043702,-0.05502469,-0.7226613,0.7095754,4.531401,43.79722,-12.49562,992.2097
4.426089287,-6.496793,2.816932,0.4140371,-0.0968505,-0.700675,0.7289396,4.531401,43.79722,-12.49562,992.2097
4.433698177,-7.73535,2.934527,-1.055414,-0.1452124,-0.6879898,0.7018777,4.531401,43.79722,-12.49562,992.2097
4.441307545,-9.407402,-1.122486,-3.137137,-0.1316398,-0.6954193,0.6884437,4.531401,43.79722,-12.49562,992.2097
4.448915958,-11.51295,-2.945201,-3.688182,-0.08313036,-0.7125944,0.7314692,4.531401,43.79722,-12.49562,992.2097
4.456525326,-13.185,0.5238382,-3.443273,-0.07820509,-0.7150136,0.7386765,4.180656,43.06163,-11.5947,992.2097
4.464133739,-14.85705,4.286864,-4.300453,-0.1112566,-0.7110769,0.7385538,4.180656,43.06163,-11.5947,992.2097
4.471743107,-17.64381,5.404013,-5.769905,-0.1002806,-0.7146848,0.7778233,4.180656,43.06163,-11.5947,992.2097
4.479351520,-21.60719,11.22494,-6.320949,-0.09239615,-0.7338101,0.7690319,4.180656,43.06163,-11.5947,992.2119
4.486960888,-21.8549,14.45879,-5.096406,-0.1372315,-0.7288827,0.7505246,4.180656,43.06163,-11.5947,992.2119
4.494569778,-23.03153,8.873053,-6.198494,-0.151132,-0.6900313,0.75788,4.180656,43.06163,-11.5947,992.2119
4.502178669,-27.61419,3.404905,-8.096537,-0.1558095,-0.6631705,0.8213668,4.180656,43.06163,-11.5947,992.2119
4.512324333,-34.79783,-0.358121,-11.34157,-0.1919932,-0.6308547,0.8272915,4.178701,43.79905,-11.15178,992.2119
4.519928932,-43.15809,-4.70912,-16.30097,-0.191584,-0.636655,0.8807187,4.178701,43.79905,-11.15178,992.2101
4.527537823,-51.70414,-3.885958,-20.03583,-0.2223619,-0.6674575,0.8826852,4.178701,43.79905,-11.15178,992.2101
4.535146713,-55.60559,-3.709566,-23.40332,-0.3304076,-0.779068,0.9087167,4.178701,43.79905,-11.15178,992.2101
4.542756081,-52.75691,-6.00266,-20.83178,-0.5098022,-0.7857804,0.7176836,4.178701,43.79905,-11.15178,992.2101
4.550364494,-28.41926,-31.46188,-30.19954,-0.5097081,-0.5863336,0.859681,4.178701,43.79905,-11.15178,992.2101
4.557973862,-27.49034,-49.98302,-43.85319,-0.3168437,-0.4399459,1.150783,3.456525,43.43453,-9.801569,992.2101
4.565583229,-37.33687,-49.92423,-51.56781,-0.1515089,-0.3873014,1.262171,3.456525,43.43453,-9.801569,992.2101
4.573191643,-62.16994,-51.86454,-55.42512,0.04318081,-0.578408,1.364198,3.456525,43.43453,-9.801569,992.2101
4.580801010,-50.2798,-34.28415,-47.037,0.1140027,-0.65933,1.389476,3.456525,43.43453,-9.801569,992.2101
4.588409424,-10.64596,12.98886,-39.87342,0.005780684,-0.5690268,1.44751,3.456525,43.43453,-9.801569,992.2101
4.596018791,24.34328,46.20933,-37.42434,-0.2507266,-0.415626,1.270115,3.456525,43.43453,-9.801569,992.2084
4.606163978,54.93565,41.97592,-48.384,-0.4655776,-0.1367311,1.250175,2.292473,43.44176,-8.511475,992.2084
4.613772869,52.64432,27.98217,-62.03765,-0.4693459,0.009743243,1.322787,2.292473,43.44176,-8.511475,992.2084
4.621382236,31.7127,20.8089,-71.1605,-0.4027033,0.03992478,1.38333,2.292473,43.44176,-8.511475,992.2084
4.628990650,11.40036,20.63251,-69.75227,-0.3570052,-0.01726177,1.313925,2.292473,43.44176,-8.511475,992.2084
4.636600017,16.23073,25.1599,-68.95632,-0.382877,-0.03406335,1.269917,2.292473,43.44176,-8.511475,992.2067
4.644208431,31.89848,35.861,-71.03804,-0.3326217,-0.08163723,1.314651,2.292473,43.44176,-8.511475,992.2067
4.651817799,37.10042,44.38661,-67.36441,-0.3621681,-0.09210047,1.310753,0.05751562,42.71902,-8.480236,992.2067
4.659426212,46.69924,51.85387,-63.2622,-0.3579723,-0.1582402,1.266803,0.05751562,42.71902,-8.480236,992.2067
4.667035580,63.91519,58.43916,-56.46598,-0.3468254,-0.1288167,1.231365,0.05751562,42.71902,-8.480236,992.2067
4.674644470,75.55762,65.25964,-50.34327,-0.3251241,-0.05715469,1.234813,0.05751562,42.71902,-8.480236,992.2067
4.682253361,79.21137,71.25697,-44.0981,-0.2927049,-0.04946029,1.228883,0.05751562,42.71902,-8.480236,992.2106
4.689862251,81.5027,77.84226,-37.54679,-0.3001148,-0.09722065,1.217112,0.05751562,42.71902,-8.480236,992.2106
4.697471619,85.52802,80.84092,-30.87304,-0.3350055,-0.1760803,1.191689,0.05751562,42.71902,-8.480236,992.2106
4.707616806,90.54417,78.95941,-20.95424,-0.3542145,-0.2878299,1.142967,-2.177307,40.82878,-9.336301,992.2106
4.715221405,96.73696,73.66766,-12.01507,-0.3447508,-0.3495165,1.094208,-2.177307,40.82878,-9.336301,992.2106
4.722830772,105.5926,67.84673,-1.851367,-0.2801495,-0.3740246,1.064858,-2.177307,40.82878,-9.336301,992.2089
4.730439663,111.1042,67.31755,9.536882,-0.2096284,-0.3714271,1.086739,-2.177307,40.82878,-9.336301,992.2089
4.738048553,108.8129,69.84583,21.04758,-0.1897677,-0.3849424,1.061423,-2.177307,40.82878,-9.336301,992.2089
4.745657921,103.9206,68.02312,30.84393,-0.2046203,-0.40093,0.9964041,-2.177307,40.82878,-9.336301,992.2089
4.753266334,99.09022,63.26054,38.80346,-0.2360372,-0.4108463,0.9311766,-4.825903,39.37238,-12.35802,992.2089
4.760875702,95.31261,52.79462,42.78322,-0.2865227,-0.39889,0.875871,-4.825903,39.37238,-12.35802,992.2131
4.768486023,88.50055,37.38974,41.98727,-0.273919,-0.4089086,0.9320208,-4.825903,39.37238,-12.35802,992.2131
4.776093483,67.13544,23.80756,40.76273,-0.1988551,-0.5311607,1.099951,-4.825903,39.37238,-12.35802,992.2131
4.783706188,31.03149,6.815147,41.19132,-0.07090556,-0.8203673,1.179289,-4.825903,39.37238,-12.35802,992.2131
4.791311264,14.74447,-9.354105,52.08975,0.07925565,-1.195865,1.122019,-4.825903,39.37238,-12.35802,992.2131
4.801456451,72.8328,-5.297092,70.7028,0.165929,-1.411979,0.8635052,-5.653634,37.90357,-14.57306,992.2131
4.809065342,156.2496,34.44987,78.90724,0.2397195,-1.245806,0.9447063,-5.653634,37.90357,-14.57306,992.2131
4.816674709,190.3719,66.96476,95.62225,0.09456992,-0.90887,0.8997423,-5.653634,37.90357,-14.57306,992.2131
4.824283123,184.4268,61.7906,100.8878,-0.1116958,-0.675406,0.7944207,-5.653634,37.90357,-14.57306,992.2131
4.831892490,152.2243,26.62983,90.47917,-0.2029704,-0.5382262,0.7642984,-5.653634,37.90357,-14.57306,992.2131
4.839500904,106.6454,-2.180837,77.98883,-0.07109829,-0.6967685,0.8101429,-5.653634,37.90357,-14.57306,992.2131
4.847110271,91.16345,-11.6472,75.29484,-0.00357776,-0.8543944,0.6719775,-5.653634,37.90357,-14.57306,992.2153
4.854719162,104.7257,-11.94118,71.80489,0.0614409,-0.8911936,0.6155527,-7.557194,37.17966,-17.22488,992.2153
4.862332344,118.0401,1.582189,70.39667,0.1313415,-0.8359991,0.6893157,-7.557194,37.17966,-17.22488,992.2153
4.869936943,111.5996,14.4,74.43766,0.008399582,-0.7488064,0.6470827,-7.557194,37.17966,-17.22488,992.2153
4.877546310,100.5765,7.579512,70.0293,-0.1391347,-0.7159939,0.5555679,-7.557194,37.17966,-17.22488,992.2153
4.885155201,86.27115,-11.706,59.92682,-0.1222937,-0.7272083,0.5902283,-7.557194,37.17966,-17.22488,992.2136
4.895300865,67.19736,-22.05432,53.92656,0.04952804,-0.9092802,0.6244793,-7.557194,37.17966,-17.22488,992.2136
4.902909279,64.90604,-20.70198,54.53884,0.1091532,-0.9800981,0.5862935,-8.382291,37.187,-22.06231,992.2136
4.910518646,73.08051,-11.99998,58.09001,0.1415047,-0.9937552,0.5409062,-8.382291,37.187,-22.06231,992.2136
4.918123245,82.92705,0.1122573,62.62082,0.08215608,-0.8962449,0.5115395,-8.382291,37.187,-22.06231,992.2136
4.925732613,81.19306,-0.005337296,63.96782,0.01335099,-0.7866176,0.4640298,-8.382291,37.187,-22.06231,992.2119
4.933341026,71.90388,-6.884619,63.11064,-0.01732603,-0.6940364,0.4318768,-8.382291,37.187,-22.06231,992.2119
4.940950394,57.53662,-14.82225,61.09014,0.002802978,-0.6757981,0.4175294,-8.382291,37.187,-22.06231,992.2119
4.948558807,43.85056,-20.99597,61.21259,0.0442398,-0.7088824,0.3974214,-8.83378,38.2979,-26.08055,992.2119
4.956168175,37.90549,-22.58349,60.96769,0.05345107,-0.7182822,0.3825162,-8.83378,38.2979,-26.08055,992.2119
4.963776588,32.8274,-24.46501,58.5186,0.03921816,-0.683458,0.4073108,-8.83378,38.2979,-26.08055,992.2141
4.971389294,24.90064,-27.64006,53.25307,0.0582625,-0.6747989,0.4356011,-8.83378,38.2979,-26.08055,992.2141
4.978994846,19.32713,-27.16968,47.06912,0.08692942,-0.6716203,0.4432311,-8.83378,38.2979,-26.08055,992.2141
4.986603737,15.17796,-24.05342,40.21169,0.08650242,-0.6233842,0.4453388,-8.83378,38.2979,-26.08055,992.2141
4.996749401,5.764925,-19.40844,31.15006,0.05353919,-0.568387,0.4556642,-7.38233,39.02671,-28.33455,992.2141
5.004357815,-8.354629,-18.64408,24.17017,0.02468486,-0.6388849,0.4732416,-7.38233,39.02671,-28.33455,992.2124
5.011967182,-16.71489,-20.52559,19.39445,0.0367228,-0.7978623,0.4587043,-7.38233,39.02671,-28.33455,992.2124
5.019575596,-13.74235,-18.46768,17.49641,0.07639557,-0.8852534,0.4636346,-7.38233,39.02671,-28.33455,992.2124
5.027184963,-3.524255,-10.94163,19.21077,0.09044945,-0.8683678,0.4829063,-7.38233,39.02671,-28.33455,992.2124
5.034793377,1.615758,-0.2405264,19.88427,0.02169914,-0.7478549,0.4585387,-7.38233,39.02671,-28.33455,992.2124
5.042402744,0.3152727,1.053014,16.39432,-0.05510324,-0.6303849,0.3874171,-7.38233,39.02671,-28.33455,992.2124
5.050012111,-10.08861,-4.121147,8.434793,-0.07975035,-0.5504006,0.3685545,-6.306836,40.49541,-30.14101,992.2146
5.057621002,-30.33902,-13.94029,0.1079013,-0.05529333,-0.5463483,0.3285167,-6.306836,40.49541,-30.14101,992.2146
5.065229893,-51.58028,-19.17325,-6.198494,-0.01867932,-0.6494936,0.3628082,-6.306836,40.49541,-30.14101,992.2146
5.072838783,-63.34658,-19.52603,-12.38244,-0.02084552,-0.7372774,0.3544386,-6.306836,40.49541,-30.14101,992.2146
5.080448150,-65.57598,-17.46813,-18.01534,-0.02678582,-0.771695,0.3629334,-6.306836,40.49541,-30.14101,992.2146
5.090593338,-70.59213,-13.11713,-24.56664,-0.01433293,-0.744338,0.4477174,-6.306836,40.49541,-30.14101,992.2146
5.098201751,-76.41335,-8.942524,-28.36272,-0.05191537,-0.7504336,0.4824587,-7.080805,42.03733,-30.58541,992.2146
5.105811119,-79.20011,-5.473485,-32.40371,-0.09468478,-0.7632834,0.4581613,-7.080805,42.03733,-30.58541,992.2146
5.113415718,45.15105,8.108687,-35.83243,-0.04623024,-0.2332294,1.389091,-7.080805,42.03733,-30.58541,992.2146
5.121025085,84.04175,56.85163,-48.50645,-0.6962058,0.4876975,1.522362,-7.080805,42.03733,-30.58541,992.2146
5.128633499,156.1877,46.97369,-69.26245,-1.22233,0.6646113,1.935996,-7.080805,42.03733,-30.58541,992.2168
5.136242866,71.90388,6.932742,-113.6521,-0.7667578,0.3693631,0.2448001,-7.080805,42.03733,-30.58541,992.2168
5.143852234,-155.6191,-120.3634,-114.0807,-0.1966488,0.08715561,1.040889,-7.873687,44.62444,-31.41736,992.2168
5.151460647,-507.3075,-150.2324,-100.6108,0.2855933,-0.483407,2.316938,-7.873687,44.62444,-31.41736,992.2168
5.159069538,-873.2392,-128.0658,-36.81207,0.5340526,-2.148985,2.708782,-7.873687,44.62444,-31.41736,992.2168
5.166678428,-426.8632,-224.317,35.68087,-0.13277,-3.875233,-3.113796,-7.873687,44.62444,-31.41736,992.215
5.174287319,183.6218,-14.29308,-78.75266,1.197552,-2.01528,1.406735,-7.873687,44.62444,-31.41736,992.215
5.181896686,232.2351,109.2988,-83.77328,0.9017389,-0.6795104,1.543218,-7.873687,44.62444,-31.41736,992.215
5.192041874,87.13814,170.2716,-7.974082,0.1754667,-0.472271,1.543826,-12.64833,46.12872,-24.73187,992.215
5.199651241,-45.94484,160.57,56.13074,-0.2949867,-0.4674237,0.9688067,-12.64833,46.12872,-24.73187,992.215
5.207259655,-155.8668,28.68774,89.98936,-0.8014827,-0.3856593,0.4820797,-12.64833,46.12872,-24.73187,992.215
5.214869022,-200.1452,-27.87525,83.62173,-0.5688393,-0.4624341,0.8991064,-12.64833,46.12872,-24.73187,992.215
5.222477436,-189.9891,-26.8169,58.15124,-0.4790453,-0.7583775,0.5622425,-12.64833,46.12872,-24.73187,992.215
5.230086803,-90.22327,-20.2316,11.19001,-0.4686188,-0.9687198,0.3083874,-12.64833,46.12872,-24.73187,992.215
5.237699508,6.012636,17.45746,-9.933351,-0.1643892,-0.8624012,0.6448694,-12.64833,46.12872,-24.73187,992.215
5.245304584,23.22858,38.27169,4.63871,-0.2255328,-0.5536269,0.7816542,-13.42302,50.62009,-22.95815,992.215
5.252913475,4.588295,36.80176,14.49628,-0.3888639,-0.3875035,0.7610817,-13.42302,50.62009,-22.95815,992.2191
5.260522842,-34.79783,-4.944309,8.128657,-0.5053585,-0.24714,0.6664748,-13.42302,50.62009,-22.95815,992.2191
5.268131256,-85.26904,-38.63515,-13.66821,-0.1929568,-0.3556254,0.914585,-13.42302,50.62009,-22.95815,992.2191
5.275740623,-119.5771,-46.10241,-18.01534,0.04086918,-0.6524524,0.9159318,-13.42302,50.62009,-22.95815,992.2191
5.285885811,-111.96,-42.39817,-8.525126,0.139501,-0.9554791,0.7297893,-13.42302,50.62009,-22.95815,992.2191
5.293494224,-59.13548,-18.99686,-6.07604,0.1314704,-0.9518799,0.695365,-12.66667,52.82695,-20.74582,992.2173
5.301103592,-12.0703,20.69131,-0.9941873,0.08504658,-0.7745697,0.8206698,-12.66667,52.82695,-20.74582,992.2173
5.308712482,-6.744504,40.85877,6.842887,-0.06986277,-0.6349762,0.8617383,-12.66667,52.82695,-20.74582,992.2173
5.316317558,-26.18985,27.92337,5.802026,-0.2235723,-0.5741194,0.7563225,-12.66667,52.82695,-20.74582,992.2173
5.323925972,-50.21787,-7.472592,-5.586223,-0.2465976,-0.5383759,0.7743934,-12.66667,52.82695,-20.74582,992.2173
5.331539631,-60.55982,-9.883281,-11.28035,-0.1759885,-0.7667392,0.929648,-12.66667,52.82695,-20.74582,992.2173
5.339144707,-81.67722,1.053014,-7.667946,-0.4212362,-1.245418,0.7003412,-12.66192,54.6702,-19.03266,992.2173
5.346753120,-17.51995,-37.04762,-9.749669,-0.3417002,-0.853551,0.1322977,-12.66192,54.6702,-19.03266,992.2173
5.354362011,35.30452,-18.64408,-25.79118,-0.08116273,-0.6379815,0.9104577,-12.66192,54.6702,-19.03266,992.2173
5.361971378,9.542525,3.816486,-17.21938,-0.09273379,-0.6234618,0.9425461,-12.66192,54.6702,-19.03266,992.2173
5.369580269,-19.43972,-12.05878,-12.44366,-0.3684537,-0.5857108,0.5648909,-12.66192,54.6702,-19.03266,992.2173
5.377189159,-17.64381,-34.93092,-28.79131,-0.2143073,-0.67242,0.7003764,-12.66192,54.6702,-19.03266,992.2213
5.387334347,-0.4278617,-34.10776,-30.50567,-0.05625792,-0.6494057,0.7707121,-12.66192,54.6702,-19.03266,992.2213
5.394943714,-2.781121,-21.05476,-28.85254,-0.2022474,-0.6526279,0.7158369,-13.03983,56.14752,-18.14218,992.2213
5.402552128,-0.9232846,-33.81377,-30.44444,-0.2308553,-0.6240519,0.6149656,-13.03983,56.14752,-18.14218,992.2213
5.410161495,-6.86836,-37.92958,-29.58727,-0.05454753,-0.6727998,0.8495257,-13.03983,56.14752,-18.14218,992.2213
5.417769909,-16.28139,-36.04807,-27.38309,0.1050497,-0.7213725,0.8353867,-13.03983,56.14752,-18.14218,992.2213
5.425379276,-13.99006,-32.10865,-22.05633,0.158567,-0.7485123,0.8148316,-13.03983,56.14752,-18.14218,992.2213
5.432988167,-3.895822,-9.354105,-11.89262,0.0621522,-0.67734,0.8698854,-13.03983,56.14752,-18.14218,992.2213
5.440598011,-3.833894,-2.474823,-10.11703,-0.03501273,-0.6466026,0.7569677,-14.58654,55.78882,-17.67476,992.2213
5.448205948,-8.044989,-9.942078,-10.17826,-0.08895478,-0.6157394,0.7917358,-14.58654,55.78882,-17.67476,992.2213
5.455815315,-15.4144,-11.23562,-10.91298,-0.1103679,-0.6435695,0.7459719,-14.58654,55.78882,-17.67476,992.2213
5.463423729,-14.60934,-12.41156,-11.46403,-0.132228,-0.6709817,0.7065521,-14.58654,55.78882,-17.67476,992.2213
5.471033096,-12.87536,-15.11624,-13.05593,-0.1340659,-0.6959273,0.6879649,-14.58654,55.78882,-17.67476,992.2213
5.481178284,-7.239927,-16.29218,-15.62747,-0.1724577,-0.6303914,0.6995558,-14.58654,55.78882,-17.67476,992.2213
5.488786697,-6.992216,-20.99597,-19.91338,-0.1928962,-0.6210449,0.7052997,-15.32292,55.42474,-17.21736,992.2213
5.496396065,-9.717041,-27.16968,-23.28087,-0.2153916,-0.6446382,0.721489,-15.32292,55.42474,-17.21736,992.2213
5.504005432,-12.19416,-35.81288,-27.44431,-0.1003226,-0.7072876,0.7088475,-15.32292,55.42474,-17.21736,992.2213
5.511613846,-17.02453,-39.51711,-27.19941,0.06522659,-0.7704488,0.766389,-15.32292,55.42474,-17.21736,992.2213
5.519219398,-14.91898,-31.75587,-21.07669,0.1422879,-0.8066856,0.7692883,-15.32292,55.42474,-17.21736,992.2213
5.526827812,-4.143534,-14.11668,-12.56612,0.1291511,-0.7796447,0.80217,-15.32292,55.42474,-17.21736,992.2213
5.534438133,0.8726234,-1.769256,-8.096537,0.02141391,-0.6948612,0.779721,-15.32292,55.42474,-17.21736,992.2195
5.542046070,-3.771966,-4.473931,-7.36181,-0.01681274,-0.6552835,0.780476,-16.82346,55.80349,-17.20059,992.2195
5.549654961,-11.63681,-8.295753,-7.116902,0.005707161,-0.6714678,0.7862421,-16.82346,55.80349,-17.20059,992.2195
5.557263851,-12.99922,-4.826715,-5.280087,0.03800061,-0.7290788,0.7446949,-16.82346,55.80349,-17.20059,992.2195
5.564873218,-9.964753,-1.24008,-2.463639,0.02632247,-0.722514,0.7498146,-16.82346,55.80349,-17.20059,992.2195
5.572481632,-10.08861,0.465041,-1.239096,0.01152322,-0.697116,0.7495575,-16.82346,55.80349,-17.20059,992.2195
5.582626820,-11.26524,2.64054,0.2303556,-0.009434516,-0.6963071,0.7385487,-16.82346,55.80349,-17.20059,992.2234
5.590236187,-12.00837,2.87573,0.9038543,-0.01815595,-0.6978674,0.739071,-17.55726,55.80802,-16.29853,992.2234
5.597844601,-12.19416,3.992878,1.516126,-0.04361046,-0.694079,0.7130729,-17.55726,55.80802,-16.29853,992.2234
5.605453968,-11.01753,4.286864,0.7201728,-0.06160003,-0.696169,0.7063545,-17.55726,55.80802,-16.29853,992.2234
5.613062858,-11.14138,2.816932,-0.1370073,-0.05426418,-0.6999652,0.7091269,-17.55726,55.80802,-16.29853,992.2234
5.620671749,-10.27439,2.87573,-0.5655973,-0.04751733,-0.6983841,0.7037518,-17.55726,55.80802,-16.29853,992.2234
5.628280640,-9.717041,2.993324,-0.7492787,-0.0566907,-0.7047614,0.702704,-17.55726,55.80802,-16.29853,992.2234
5.635890007,-9.840897,2.522946,-0.9329602,-0.05773659,-0.6989527,0.6994399,-18.30722,56.55039,-15.84635,992.2234
5.643498421,-9.097762,3.463702,-1.177869,-0.07168216,-0.6950187,0.7249692,-18.30722,56.55039,-15.84635,992.2234
5.651107788,-8.230772,3.640094,-1.973822,-0.07715559,-0.6953791,0.7045531,-18.30722,56.55039,-15.84635,992.2234
5.658717155,-8.60234,3.404905,-2.769774,-0.08479205,-0.695177,0.7245864,-18.30722,56.55039,-15.84635,992.2217
5.666325569,-9.655113,3.757689,-3.443273,-0.1076763,-0.6846904,0.6563579,-18.30722,56.55039,-15.84635,992.2217
5.676470756,-5.877514,-1.181283,-5.096406,-0.01641914,-0.6866034,0.7237376,-18.30722,56.55039,-15.84635,992.2217
5.684080124,-8.354629,2.64054,-4.667816,-0.02112189,-0.6720979,0.7664824,-17.91706,55.81005,-15.40109,992.2217
5.691688538,-11.57488,2.816932,-4.422907,-0.0598975,-0.6993461,0.7388929,-17.91706,55.81005,-15.40109,992.2217
5.699297905,-11.57488,2.228959,-5.280087,-0.07501862,-0.6932387,0.7367256,-17.91706,55.81005,-15.40109,992.2217
5.706906795,-12.62765,2.052567,-6.320949,-0.04727067,-0.6748939,0.7729627,-17.91706,55.81005,-15.40109,992.2217
5.714511871,-16.09561,2.758135,-6.810766,-0.03850231,-0.6529067,0.8074935,-17.91706,55.81005,-15.40109,992.2217
5.722120285,-21.60719,6.168377,-8.157763,-0.03794337,-0.6296507,0.8504001,-17.91706,55.81005,-15.40109,992.2217
5.729729652,-29.10046,8.637863,-9.198625,-0.06080941,-0.6455902,0.8214837,-17.91706,55.81005,-15.40109,992.2217
5.737338543,-35.35518,7.755904,-9.137398,-0.06592192,-0.664075,0.830345,-18.28396,55.81232,-14.95006,992.2217
5.744947910,-42.60074,5.521607,-9.688442,-0.01637399,-0.6730374,0.8219357,-18.28396,55.81232,-14.95006,992.2217
5.752556324,-49.16509,7.814701,-8.525126,-0.008803235,-0.6838255,0.8503517,-18.28396,55.81232,-14.95006,992.2217
5.760165691,-54.11932,10.16659,-7.790401,-0.01080922,-0.6799496,0.8460764,-18.28396,55.81232,-14.95006,992.2217
5.767774105,-65.63791,9.9902,-5.341315,-0.01617097,-0.6699786,0.8565805,-18.28396,55.81232,-14.95006,992.2217
5.777919292,-78.64276,11.34254,-3.137137,-0.01188267,-0.6645727,0.8518022,-18.28396,55.81232,-14.95006,992.2217
5.785528660,-88.17965,13.63563,-2.035049,-0.03276222,-0.6486213,0.8732874,-17.88609,56.17778,-13.17081,992.22
5.793137550,-103.7855,13.16525,-1.116642,-0.04102291,-0.622503,0.9080551,-17.88609,56.17778,-13.17081,992.22
5.800746441,-116.2949,15.34075,-0.8105059,-0.07425261,-0.5806769,0.9331701,-17.88609,56.17778,-13.17081,992.22
5.808355808,-137.66,13.87082,-3.382046,-0.0942524,-0.5439064,0.8966998,-17.88609,56.17778,-13.17081,992.22
5.815964699,-162.1215,8.167485,-6.07604,-0.0500046,-0.5515596,0.8961562,-17.88609,56.17778,-13.17081,992.22
5.823573589,-183.0531,8.226282,-6.688312,-0.03882023,-0.5649824,0.953212,-17.88609,56.17778,-13.17081,992.22
5.831182480,-198.3493,13.22405,-10.66808,-0.02388349,-0.5738893,0.9967074,-17.43952,56.54174,-8.330492,992.22
5.838791847,-219.5906,22.80801,-13.60698,0.02668964,-0.5762424,1.005489,-17.43952,56.54174,-8.330492,992.22
5.846400261,-235.0725,40.50599,-16.3622,0.07326284,-0.5931646,1.122555,-17.43952,56.54174,-8.330492,992.22
5.854009628,-224.7925,68.3759,-25.6075,-0.1571609,-0.3093532,0.8126242,-17.43952,56.54174,-8.330492,992.22
5.861622333,-270.3095,54.08816,-41.22042,-0.009172177,-0.4122668,1.0218,-17.43952,56.54174,-8.330492,992.22
5.871763229,-336.6342,49.20799,-39.07747,0.04557018,-0.3165975,0.7708543,-17.43952,56.54174,-8.330492,992.22
5.879372597,-323.0101,94.77588,-49.24118,-0.2182077,-0.666442,0.7789505,-17.28175,56.90556,1.87131,992.22
5.886981487,-344.623,50.50153,-60.20084,-0.2359518,-0.9928174,0.5099473,-17.28175,56.90556,1.87131,992.22
5.894590378,-364.8734,16.5755,-59.52734,-0.2490518,-1.160444,0.3541934,-17.28175,56.90556,1.87131,992.22
5.902199268,-366.3596,5.404013,-54.75162,-0.1068274,-1.570507,0.7339633,-17.28175,56.90556,1.87131,992.22
5.909808636,-408.7183,-1.475269,-35.03648,-0.01986605,-2.066938,0.5711424,-17.28175,56.90556,1.87131,992.22
5.917413235,-378.6833,2.758135,-17.77043,-0.147413,-2.622335,0.3405302,-17.28175,56.90556,1.87131,992.22
5.925022125,-269.8141,18.751,-24.44419,-0.2571383,-2.66427,0.1373849,-17.28175,56.90556,1.87131,992.22
5.932631016,-187.0784,23.68997,-23.40332,-0.3876624,-1.856516,0.6015007,-19.2308,54.69929,18.74534,992.22
5.940240383,-219.0332,23.98395,-28.73009,-0.6063114,-1.755831,1.005461,-19.2308,54.69929,18.74534,992.22
5.947849274,-254.2702,-33.3434,-55.85371,-0.748212,-1.764143,0.8286906,-19.2308,54.69929,18.74534,992.2222
5.955458164,-239.9648,-43.28014,-69.75227,-0.3314202,-2.196942,1.215407,-19.2308,54.69929,18.74534,992.2222
5.963067532,-178.1608,-14.88105,-59.58857,-0.4105591,-2.017101,1.024998,-19.2308,54.69929,18.74534,992.2222
5.973212719,124.171,39.03606,-47.34314,-0.4868391,-0.4063774,1.259615,-19.2308,54.69929,18.74534,992.2222
5.980821133,295.897,61.32022,-53.77199,-0.4227111,0.1638933,2.557558,-18.97915,47.99387,29.42688,992.2222
5.988430500,-52.13763,17.98663,-92.65122,-0.5758878,-0.3182919,2.879634,-18.97915,47.99387,29.42688,992.2205
5.996038914,-98.08811,-26.58171,-62.34379,-0.3316506,-0.2574729,1.437622,-18.97915,47.99387,29.42688,992.2205
6.003648281,60.26144,6.227174,-68.2216,-0.2545334,0.01759543,1.074797,-18.97915,47.99387,29.42688,992.2205
6.011257171,191.6724,82.31085,-93.44717,-0.2687306,0.204862,1.31402,-18.97915,47.99387,29.42688,992.2205
6.018866539,256.5108,107.7113,-107.2845,-0.3914903,0.4071335,1.092843,-18.97915,47.99387,29.42688,992.2205
6.026474952,274.408,95.65784,-116.1625,-0.4851479,0.5242085,1.041817,-19.35244,45.04689,27.21339,992.2205
6.034084320,231.3062,68.96387,-122.1015,-0.5420926,0.5540135,1.134534,-19.35244,45.04689,27.21339,992.2205
6.041692734,126.9578,43.91623,-119.285,-0.4971226,0.4359576,1.382186,-19.35244,45.04689,27.21339,992.2205
6.049302101,12.26735,33.45032,-96.81467,-0.4751337,0.111029,1.321799,-19.35244,45.04689,27.21339,992.2205
6.056910515,-67.92924,13.92962,-77.83425,-0.629949,-0.2205199,1.167754,-19.35244,45.04689,27.21339,992.2205
6.067056179,-77.58998,-27.87525,-52.73112,-0.4756087,-0.7099797,1.071256,-19.35244,45.04689,27.21339,992.2205
6.074665069,34.12789,-15.46902,-33.56703,-0.3974619,-1.141309,0.331028,-19.35244,45.04689,27.21339,992.2205
6.082273960,206.1016,19.22137,-23.09719,-0.2939413,-1.137818,0.7159366,-24.08259,47.66338,17.94678,992.2205
6.089883327,290.1377,74.72601,-13.11716,-0.2170477,-0.7937369,0.9239968,-24.08259,47.66338,17.94678,992.2205
6.097492218,294.2249,84.89793,18.78218,-0.3835938,-0.7396063,0.8501819,-24.08259,47.66338,17.94678,992.2205
6.105101108,246.6024,48.03204,37.45646,-0.5296742,-0.4631645,0.8739316,-24.08259,47.66338,17.94678,992.2222
6.112710476,195.8835,36.0962,38.31364,-0.3875624,-0.6916931,0.8303976,-24.08259,47.66338,17.94678,992.2222
6.120315075,183.2502,30.51045,58.70228,-0.3557421,-0.8261416,0.5396741,-24.08259,47.66338,17.94678,992.2222
6.127928257,204.3057,31.21602,75.78465,-0.3200664,-0.8315548,0.4944525,-30.2709,48.81541,6.026434,992.2222
6.135532856,217.6821,40.97637,89.49953,-0.257334,-0.8403679,0.6432289,-30.2709,48.81541,6.026434,992.2222
6.143142223,198.9799,36.21379,108.1126,-0.3686186,-0.8148969,0.6627596,-30.2709,48.81541,6.026434,992.2222
6.150750637,178.0482,21.39687,120.1743,-0.3548881,-0.966554,0.6936678,-30.2709,48.81541,6.026434,992.22
6.158360004,167.8921,11.81292,133.7055,-0.3448049,-1.079314,0.7406136,-30.2709,48.81541,6.026434,992.22
6.168505192,162.5663,-2.474823,145.3999,-0.2683524,-1.25721,0.8220094,-30.2709,48.81541,6.026434,992.22
6.176113605,167.6444,-9.942078,149.1348,-0.2042688,-1.385472,0.7912065,-32.47961,51.84762,-9.014084,992.22
6.183722973,184.241,-10.47125,149.4409,-0.1379857,-1.457638,0.8030921,-32.47961,51.84762,-9.014084,992.22
6.191331863,206.2254,1.523392,146.5632,-0.08552503,-1.453222,0.81299,-32.47961,51.84762,-9.014084,992.22
6.198940754,224.1226,17.22227,143.7468,-0.08688156,-1.41935,0.8016207,-32.47961,51.84762,-9.014084,992.22
6.206549644,226.0424,21.10289,138.3588,-0.1635583,-1.327977,0.7863749,-32.47961,51.84762,-9.014084,992.22
6.214159012,223.9368,20.8089,127.2155,-0.1420611,-1.359351,0.7635492,-32.47961,51.84762,-9.014084,992.22
6.221767425,229.758,28.09976,118.3988,-0.1109892,-1.358019,0.7652726,-32.47961,51.84762,-9.014084,992.22
6.229376793,231.492,35.44942,109.3984,-0.1045724,-1.325489,0.7528338,-19.67447,48.38397,-14.00368,992.2217
6.236986160,228.7052,43.44585,100.7653,-0.08592514,-1.298656,0.7464914,-19.67447,48.38397,-14.00368,992.2217
6.244594574,224.6799,52.85342,94.70384,-0.07951075,-1.268029,0.7310863,-19.67447,48.38397,-14.00368,992.2217
6.252203941,216.877,61.67301,90.29549,-0.06578711,-1.266611,0.7524332,-19.67447,48.38397,-14.00368,992.2217
6.262349129,205.8539,70.13982,87.23413,-0.09608538,-1.345529,0.6875275,-19.67447,48.38397,-14.00368,992.2217
6.269958019,203.6864,71.66855,85.51978,-0.1106352,-1.357641,0.6732414,-19.67447,48.38397,-14.00368,992.2234
6.277566910,198.856,70.4338,84.72382,-0.125023,-1.404953,0.7078,-4.750049,37.15797,-9.286525,992.2234
6.285176277,193.2206,65.49483,84.72382,-0.1122512,-1.500501,0.6718553,-4.750049,37.15797,-9.286525,992.2234
6.292785168,196.1931,57.5572,86.92799,-0.06260142,-1.554397,0.6171043,-4.750049,37.15797,-9.286525,992.2234
6.300393581,203.996,52.67703,91.09145,0.01848086,-1.506519,0.6102542,-4.750049,37.15797,-9.286525,992.2234
6.308002949,208.0213,55.61689,98.80606,0.06961411,-1.406606,0.6248354,-4.750049,37.15797,-9.286525,992.2234
6.315607548,200.7139,55.96968,107.1942,-0.02759187,-1.33626,0.5600821,-4.750049,37.15797,-9.286525,992.2213
6.323216915,188.3902,42.68149,110.3168,-0.1182999,-1.366356,0.4583473,-0.2212882,44.20232,-24.87663,992.2213
6.330825329,179.101,24.92471,111.2964,-0.1333871,-1.417479,0.3827675,-0.2212882,44.20232,-24.87663,992.2213
6.338434696,172.5367,8.579065,111.7862,-0.0943162,-1.451438,0.2978916,-0.2212882,44.20232,-24.87663,992.2213
6.346043110,164.0526,-7.590187,111.8474,-0.01926735,-1.449288,0.270054,-0.2212882,44.20232,-24.87663,992.2213
6.356188297,142.0682,-25.11178,110.3168,0.1196561,-1.406322,0.1934631,-0.2212882,44.20232,-24.87663,992.2213
6.363797664,123.3659,-28.8748,106.6431,0.2445476,-1.402384,0.1433436,-0.2212882,44.20232,-24.87663,992.2213
6.371407032,109.7418,-18.82047,105.6635,0.3566804,-1.471993,0.04485678,6.151959,37.09483,-33.34065,992.2213
6.379015446,101.5054,-3.591971,113.9292,0.364255,-1.554552,-0.09738688,6.151959,37.09483,-33.34065,992.2213
6.386624813,93.76442,0.5238382,115.8884,0.2274599,-1.51597,-0.1722979,6.151959,37.09483,-33.34065,992.2213
6.394233703,72.33738,-14.41067,105.9084,0.2436311,-1.574592,-0.2302929,6.151959,37.09483,-33.34065,992.223
6.401842594,52.8301,-26.22892,91.09145,0.342299,-1.632154,-0.2928379,6.151959,37.09483,-33.34065,992.223
6.409451485,49.486,-27.22848,74.43766,0.4519137,-1.634762,-0.3858383,6.151959,37.09483,-33.34065,992.223
6.417060852,53.51131,-13.11713,65.7434,0.5297282,-1.454529,-0.410013,6.151959,37.09483,-33.34065,992.223
6.424669266,32.45583,-0.8284993,59.06964,0.4047823,-1.253669,-0.3784689,6.312409,26.33675,-31.50431,992.223
6.432278633,1.120335,-4.70912,41.19132,0.2175494,-1.207008,-0.5068289,6.312409,26.33675,-31.50431,992.2247
6.439887047,-19.06815,-23.93583,14.92487,0.1500565,-1.226406,-0.5344851,6.312409,26.33675,-31.50431,992.2247
6.447496414,-38.5135,-38.92914,-8.035309,0.2645135,-1.260204,-0.3808762,6.312409,26.33675,-31.50431,992.2247
6.457642555,-63.34658,-37.69439,-22.48492,0.3445401,-1.428959,-0.1877798,6.312409,26.33675,-31.50431,992.2247
6.465250492,-69.35358,-32.40264,-27.99536,0.3341087,-1.536557,-0.1522315,6.312409,26.33675,-31.50431,992.2247
6.472862244,-61.36488,-23.87703,-29.34236,0.3094473,-1.423388,-0.054905,6.725427,25.96439,-29.33895,992.2264
6.480468273,-45.07785,-7.061011,-27.56677,0.0616533,-0.815702,0.02273127,6.725427,25.96439,-29.33895,992.2264
6.488077640,148.8802,82.66364,-9.137398,-1.09208,-0.587308,2.423725,6.725427,25.96439,-29.33895,992.2264
6.495687008,350.2696,50.14874,-37.48557,-1.439,0.0816477,0.6068707,6.725427,25.96439,-29.33895,992.2264
6.503295421,344.8819,-47.86632,-154.7356,-3.04143,2.242821,2.004505,6.725427,25.96439,-29.33895,992.2264
6.510904789,25.58184,-327.6238,-287.2923,-1.308047,1.538333,0.03559617,6.725427,25.96439,-29.33895,992.2264
6.518509388,-461.8524,-430.6366,-286.129,0.8473907,0.2018777,1.299894,4.460732,27.08595,-29.76281,992.2225
6.526118755,-806.6049,-448.6874,-187.3696,2.050333,-0.004847562,1.357706,4.460732,27.08595,-29.76281,992.2225
6.533730984,-1085.838,-297.402,-7.606719,3.565331,-3.470153,3.335604,4.460732,27.08595,-29.76281,992.2225
6.541336536,-194.1382,212.7232,274.7116,2.103864,-4.701517,-2.37047,4.460732,27.08595,-29.76281,992.2225
6.551481724,228.891,174.3286,188.4426,-0.3525997,-0.2478072,1.148762,4.460732,27.08595,-29.76281,992.2225
6.559090137,82.67934,88.01419,-14.52539,-0.09745498,0.5548773,1.631984,4.460732,27.08595,-29.76281,992.2242
6.566699505,-136.5453,16.5167,-143.7147,0.1123399,-0.08359826,1.856834,-2.609568,28.97388,-22.09394,992.2242
6.574308395,-334.3429,34.09709,-150.9395,0.03035234,-0.8707874,1.442185,-2.609568,28.97388,-22.09394,992.2242
6.581917286,-298.9202,63.67212,-23.77069,-0.1507927,-2.4028,-0.2294079,-2.609568,28.97388,-22.09394,992.2242
6.589526176,-90.09941,18.5746,103.2756,-0.7817283,-1.650526,0.03543524,-2.609568,28.97388,-22.09394,992.2242
6.597135544,-13.12307,54.38215,61.70241,-0.6048547,-0.5567287,0.9751084,-2.609568,28.97388,-22.09394,992.2203
6.604743957,-53.6239,39.56524,-5.708677,-0.4728762,-0.4905786,0.8353251,-2.609568,28.97388,-22.09394,992.2203
6.612355232,-114.1894,7.755904,-5.64745,-0.3299281,-0.817746,0.7091234,-2.609568,28.97388,-22.09394,992.2203
6.619989872,-125.2125,-9.530497,4.332574,-0.4638334,-0.8542964,0.6733335,-1.878966,34.92977,-18.62384,992.2203
6.627599239,-87.00302,-3.827161,-6.749539,-0.3972685,-0.9798356,0.5086575,-1.878966,34.92977,-18.62384,992.2203
6.635207653,-58.45427,-8.17816,-2.21873,-0.2974013,-0.8082922,0.7217383,-1.878966,34.92977,-18.62384,992.2238
6.642820835,-66.56683,-13.29352,-10.05581,-0.2570297,-0.6981075,0.811155,-1.878966,34.92977,-18.62384,992.2238
6.652962208,-98.15004,-17.35053,-32.8323,-0.4335121,-1.210498,0.8731603,-1.878966,34.92977,-18.62384,992.2238
6.660571575,-62.54151,-67.56342,-26.46468,-0.1037665,-1.29903,0.03614265,-1.878966,34.92977,-18.62384,992.2238
6.668179989,22.11388,-66.56387,-32.58739,0.0933083,-0.6337105,0.9422355,-1.489524,37.13889,-15.96047,992.2238
6.675789356,10.71915,-7.94297,-33.62825,0.3192473,-0.6802896,1.268962,-1.489524,37.13889,-15.96047,992.2238
6.683398247,-52.69498,3.816486,1.944716,0.3222853,-0.9102069,0.8267392,-1.489524,37.13889,-15.96047,992.2255
6.691007137,-23.65081,4.051675,15.04733,-0.09225398,-0.714559,0.6711142,-1.489524,37.13889,-15.96047,992.2255
6.698616028,-5.010524,23.33718,4.63871,-0.1545967,-0.7435464,0.7474022,-1.489524,37.13889,-15.96047,992.2255
6.706225395,0.4391284,5.227621,2.985577,-0.156643,-0.6596504,0.7011749,-1.489524,37.13889,-15.96047,992.2255
6.713829994,-19.06815,-3.239188,1.332444,-0.1278934,-0.6405743,0.8158228,-1.481805,38.24469,-14.62647,992.2255
6.721438885,-22.22647,1.347,3.659076,-0.1627917,-0.7516362,0.672287,-1.481805,38.24469,-14.62647,992.2255
6.729047775,-6.496793,3.992878,3.169259,-0.2358112,-0.7217622,0.6843013,-1.481805,38.24469,-14.62647,992.2255
6.736657143,-5.320163,-0.2405264,-0.2594616,-0.2225556,-0.6653798,0.7108356,-1.481805,38.24469,-14.62647,992.2255
6.746802330,-10.9556,-4.003552,-0.6268244,-0.1630229,-0.7405523,0.7256281,-1.481805,38.24469,-14.62647,992.2255
6.754410744,-4.267389,-1.651661,-0.1982344,-0.1401062,-0.7446962,0.7345948,-1.481805,38.24469,-14.62647,992.2255
6.762020111,-1.790275,-1.298877,0.04667418,-0.1206917,-0.6818337,0.7471082,-1.871962,38.98502,-15.07172,992.2233
6.769628525,-4.019678,-0.358121,0.4752642,-0.1081002,-0.6830661,0.7406451,-1.871962,38.98502,-15.07172,992.2233
6.777237892,-5.196308,1.053014,1.20999,-0.117839,-0.6677043,0.6845968,-1.871962,38.98502,-15.07172,992.2233
6.784846783,-3.09076,2.816932,0.9038543,-0.1397963,-0.6689664,0.7392885,-1.871962,38.98502,-15.07172,992.2233
6.792455673,-4.638957,1.99377,0.3528099,-0.1390547,-0.6707396,0.7752764,-1.871962,38.98502,-15.07172,992.2233
6.800065041,-8.230772,3.757689,0.6589457,-0.145033,-0.6906173,0.7251891,-1.871962,38.98502,-15.07172,992.225
6.807673931,-4.143534,4.404459,0.8426271,-0.1714926,-0.6891771,0.6908659,-1.871962,38.98502,-15.07172,992.225
6.815285206,-3.152688,3.169716,-0.01455296,-0.1617131,-0.6705683,0.7267702,-1.105229,38.6108,-14.18643,992.225
6.822891712,-5.010524,4.757243,-0.5043702,-0.1811141,-0.6736907,0.7253958,-1.105229,38.6108,-14.18643,992.225
6.830501080,-6.86836,2.287757,-1.484004,-0.1763972,-0.6886921,0.6841,-1.105229,38.6108,-14.18643,992.225
6.838109493,-6.00137,0.05345999,-2.524866,-0.1625316,-0.6696435,0.6781017,-1.105229,38.6108,-14.18643,992.225
6.848254681,-3.833894,1.170608,-3.93309,-0.1671561,-0.6728765,0.7082561,-1.105229,38.6108,-14.18643,992.2228
6.855864048,-5.444019,-0.769702,-4.912724,-0.1666297,-0.6795978,0.7051724,-1.105229,38.6108,-14.18643,992.2228
6.863472939,-6.930288,-1.769256,-5.402542,-0.161774,-0.6876405,0.6942307,-1.486332,38.6135,-14.62821,992.2228
6.871081829,-5.815586,-2.357229,-5.463769,-0.1554388,-0.682354,0.7050157,-1.486332,38.6135,-14.62821,992.2228
6.878690720,-5.753658,-2.53362,-5.586223,-0.1534366,-0.691943,0.7008788,-1.486332,38.6135,-14.62821,992.2228
6.886300087,-5.505947,-2.710012,-5.524996,-0.155301,-0.6854011,0.7215002,-1.486332,38.6135,-14.62821,992.2244
6.893913269,-6.311009,-2.53362,-6.014813,-0.1529464,-0.6881311,0.7068078,-1.486332,38.6135,-14.62821,992.2244
6.901517868,-6.682576,-3.239188,-6.07604,-0.1534547,-0.6866763,0.7053851,-1.486332,38.6135,-14.62821,992.2244
6.909126282,-6.682576,-3.003999,-6.443403,-0.1500965,-0.6789553,0.7099211,-1.116857,38.97984,-14.63457,992.2244
6.916731834,-6.86836,-2.827607,-6.93322,-0.1477208,-0.677902,0.7035956,-1.116857,38.97984,-14.63457,992.2244
6.924340248,-7.487638,-3.356782,-7.116902,-0.1426178,-0.6896179,0.7247058,-1.116857,38.97984,-14.63457,992.2244
6.931949615,-8.478484,-2.886404,-6.994448,-0.1460642,-0.6915001,0.7149506,-1.116857,38.97984,-14.63457,992.2244
6.942094803,-7.487638,-2.76881,-7.606719,-0.1549187,-0.6862075,0.7049211,-1.116857,38.97984,-14.63457,992.2244
6.949704170,-7.425711,-2.53362,-8.402672,-0.1672143,-0.6747032,0.6970135,-1.116857,38.97984,-14.63457,992.2244
6.957312584,-7.73535,-3.650769,-10.42317,-0.1681913,-0.6809019,0.6876239,-1.116857,38.97984,-14.63457,992.2244
6.964921951,-7.363783,-5.120701,-12.13753,-0.1764864,-0.6823754,0.6793792,-1.476658,38.98188,-13.73714,992.2244
6.972530365,-8.230772,-7.061011,-13.48452,-0.1560411,-0.6903015,0.6765903,-1.476658,38.98188,-13.73714,992.2244
6.980139732,-8.60234,-8.707335,-13.72943,-0.1260426,-0.7185778,0.6951596,-1.476658,38.98188,-13.73714,992.2244
6.987752438,-8.106916,-8.119362,-12.19876,-0.09924017,-0.7207707,0.7070618,-1.476658,38.98188,-13.73714,992.2244
6.995357513,-7.177999,-5.649876,-10.36194,-0.0947706,-0.7218069,0.7206358,-1.476658,38.98188,-13.73714,992.2244
7.002970218,-6.558721,-4.06235,-9.627214,-0.1061598,-0.7078199,0.7064483,-1.476658,38.98188,-13.73714,992.2205
7.010575771,-7.73535,-4.297539,-9.014943,-0.09582363,-0.7217068,0.7084727,-2.231763,38.98707,-14.17429,992.2205
7.018184185,-7.116071,-3.062796,-8.157763,-0.09690911,-0.7172737,0.6973851,-2.231763,38.98707,-14.17429,992.2205
7.025793552,-5.753658,-1.710458,-7.974082,-0.1199193,-0.6944173,0.700058,-2.231763,38.98707,-14.17429,992.2205
7.033401966,-7.054143,-1.298877,-8.096537,-0.1461682,-0.6904051,0.700855,-2.231763,38.98707,-14.17429,992.2205
7.043547153,-8.044989,-3.062796,-8.21899,-0.1138168,-0.7042541,0.7280215,-2.231763,38.98707,-14.17429,992.2222
7.051156521,-7.363783,0.2886491,-8.157763,-0.1405616,-0.6954683,0.7338041,-2.231763,38.98707,-14.17429,992.2222
7.058765411,-6.620648,1.405797,-9.688442,-0.1719294,-0.6740004,0.7189823,-2.233717,39.72448,-13.73136,992.2222
7.066374779,-10.27439,-1.298877,-12.13753,-0.1558079,-0.6920494,0.7091743,-2.233717,39.72448,-13.73136,992.2222
7.073983669,-10.08861,0.7002301,-13.54575,-0.1258579,-0.7116819,0.7323292,-2.233717,39.72448,-13.73136,992.2222
7.081592560,-7.549566,4.81604,-14.21925,-0.1057154,-0.7012784,0.782078,-2.233717,39.72448,-13.73136,992.2222
7.089201927,-11.38909,10.28419,-15.50502,-0.06820899,-0.6771625,0.833466,-2.233717,39.72448,-13.73136,992.2239
7.096810341,-16.28139,16.75189,-14.52539,-0.08026977,-0.6950473,0.8204851,-2.233717,39.72448,-13.73136,992.2239
7.104419708,-15.97176,21.74966,-11.77017,-0.1881899,-0.7329602,0.6023232,-2.233717,39.72448,-13.73136,992.2239
7.112028122,-17.51995,1.640987,-12.99471,-0.05593413,-0.6550893,0.8114817,-2.579936,38.62007,-12.82871,992.2239
7.119633674,-32.25879,9.167039,-8.341445,-0.002848288,-0.7010854,0.8460025,-2.579936,38.62007,-12.82871,992.2239
7.127242088,-33.18771,17.92783,-4.239226,-0.1112786,-0.7117153,0.8072016,-2.579936,38.62007,-12.82871,992.22
7.137387275,-38.20386,14.75278,-4.484135,-0.0945959,-0.6610489,0.830165,-2.579936,38.62007,-12.82871,992.22
7.144996643,-51.58028,13.22405,-1.545232,-0.06064349,-0.6855609,0.8643729,-2.579936,38.62007,-12.82871,992.22
7.152605057,-57.09186,19.10378,1.63858,-0.09335518,-0.6914267,0.8289561,-2.579936,38.62007,-12.82871,992.22
7.160214424,-61.30296,21.16168,2.92435,-0.09433799,-0.6680723,0.8592165,-2.96042,39.72879,-12.38289,992.22
7.167823314,-72.9454,20.7501,5.006073,-0.063394,-0.6308249,0.8910004,-2.96042,39.72879,-12.38289,992.2218
7.175432205,-89.54206,22.33763,7.761295,-0.05041832,-0.6247652,0.8793483,-2.96042,39.72879,-12.38289,992.2218
7.183041096,-103.9093,25.63028,10.21038,-0.06504742,-0.5962635,0.9088677,-2.96042,39.72879,-12.38289,992.2218
7.190650463,-119.0817,28.98172,10.7002,-0.07093586,-0.5600329,0.9492096,-2.96042,39.72879,-12.38289,992.2218
7.198258877,-140.3229,32.68595,11.31247,-0.0885835,-0.5280871,0.9676343,-2.96042,39.72879,-12.38289,992.2218
7.205868244,-162.1834,35.27303,8.740929,-0.1247438,-0.4915145,0.9829109,-2.936544,40.09673,-10.59901,992.2218
7.213477611,-185.0968,38.97726,4.761165,-0.0903514,-0.4876511,0.9763877,-2.936544,40.09673,-10.59901,992.2235
7.221086025,-196.058,41.74073,-0.2594616,-0.1730281,-0.3013737,0.9195879,-2.936544,40.09673,-10.59901,992.2235
7.228695392,-227.765,39.44764,-12.32121,-0.05797615,-0.314632,1.044942,-2.936544,40.09673,-10.59901,992.2235
7.238840580,-303.9983,30.45165,-13.36207,0.002207978,-0.5522384,0.934668,-2.936544,40.09673,-10.59901,992.2235
7.246448994,-324.3725,34.44987,-10.54562,-0.05264818,-0.7473419,0.6680721,-2.936544,40.09673,-10.59901,992.2235
7.254058361,-306.4135,38.27169,-9.810896,-0.1483992,-0.9133436,0.6430572,-1.70647,40.45464,-3.535926,992.2235
7.261667251,-301.3354,36.86056,-5.831132,-0.1383075,-0.9292795,0.6055911,-1.70647,40.45464,-3.535926,992.2235
7.269276142,-310.253,35.56702,-1.912595,-0.2158061,-0.9275239,0.7810919,-1.70647,40.45464,-3.535926,992.2235
7.276885032,-359.3618,26.39464,7.638841,-0.2499994,-1.191278,0.6067022,-1.70647,40.45464,-3.535926,992.2235
7.284494400,-385.3715,11.40134,12.65947,-0.3555742,-1.827601,1.011942,-1.70647,40.45464,-3.535926,992.2235
7.292102814,-369.7037,-8.060565,9.291973,-0.4152361,-1.941993,-0.15605,-1.70647,40.45464,-3.535926,992.221
7.299712181,-291.7365,14.87037,1.20999,-0.2929,-2.46203,0.6581174,-1.70647,40.45464,-3.535926,992.221
7.307320595,-232.5954,10.22539,10.21038,-0.05620215,-1.957117,0.4420463,-0.7849324,41.18169,7.930326,992.221
7.314927578,-206.1522,46.38572,3.78153,0.1709788,-1.496254,1.214054,-0.7849324,41.18169,7.930326,992.221
7.322534561,-250.6164,121.0583,34.70124,0.08227394,-1.715123,1.2267,-0.7849324,41.18169,7.930326,992.221
7.332679748,-211.9734,148.693,41.06886,-0.4311374,-1.533777,0.713145,-0.7849324,41.18169,7.930326,992.221
7.340289116,-163.1124,160.8052,16.82291,-0.2520485,-1.224426,1.054927,-0.7849324,41.18169,7.930326,992.221
7.347898483,-157.2292,188.9691,20.31286,-0.2881438,-0.9152653,1.235342,-0.7849324,41.18169,7.930326,992.221
7.355506897,-129.919,215.1927,17.80255,-0.7281542,-0.5854152,0.5746763,0.5117178,37.85075,16.35002,992.221
7.363120556,68.18821,213.37,9.414428,-1.55755,-0.1524265,0.7099819,0.5117178,37.85075,16.35002,992.221
7.370725155,73.88557,81.07611,-49.30241,-1.554414,0.1146221,2.201954,0.5117178,37.85075,16.35002,992.221
7.378334045,-177.9751,-38.45876,-123.1423,-1.157809,-0.7004028,1.731095,0.5117178,37.85075,16.35002,992.221
7.385942936,-124.0359,-104.9585,-111.999,-0.3005653,-0.9142585,0.9028685,0.5117178,37.85075,16.35002,992.221
7.393552303,69.24099,-84.08545,-127.1221,0.04171338,-0.6476012,1.122026,0.5117178,37.85075,16.35002,992.221
7.401160717,182.8167,19.69175,-145.3066,0.2220445,-0.1754353,1.290844,0.6183233,33.792,19.94038,992.221
7.408770084,232.1113,87.72021,-145.8576,0.063678,0.04244729,1.212033,0.6183233,33.792,19.94038,992.221
7.416378498,232.2971,118.3536,-136.1225,-0.1652934,0.1190762,1.127085,0.6183233,33.792,19.94038,992.221
7.423988342,195.1404,93.65873,-125.4078,-0.4856772,0.1220611,0.8478373,0.6183233,33.792,19.94038,992.221
7.434133053,102.1866,25.0423,-129.51,-0.7230676,0.1753658,0.9245725,0.6183233,33.792,19.94038,992.221
7.441745281,39.88718,-10.58885,-147.2659,-0.6161978,-0.03909537,0.9303551,0.6183233,33.792,19.94038,992.221
7.449350834,15.17796,-31.69707,-149.2863,-0.5957392,-0.3361103,0.8243728,-1.303965,33.43734,16.39402,992.221
7.456959724,51.59155,-51.45296,-140.6533,-0.5357474,-0.534756,0.5202259,-1.303965,33.43734,16.39402,992.217
7.464569092,133.7079,-48.04272,-139.7349,-0.4453861,-0.5770041,0.6163729,-1.303965,33.43734,16.39402,992.217
7.472177505,190.9292,-21.28995,-140.8982,-0.2858083,-0.5439702,0.8568828,-1.303965,33.43734,16.39402,992.217
7.479786873,196.9362,-4.238741,-117.4482,-0.2504497,-0.632635,0.9411945,-1.303965,33.43734,16.39402,992.217
7.487398147,178.1721,-5.120701,-84.87537,-0.282435,-0.7395643,0.8761335,-1.303965,33.43734,16.39402,992.217
7.495004654,178.9772,-1.357675,-61.60906,-0.3097538,-0.8956438,0.8610141,-1.303965,33.43734,16.39402,992.2188
7.502614021,196.6885,8.226282,-28.73009,-0.3017161,-1.072711,0.6586029,-4.818465,34.20009,11.58627,992.2188
7.510222435,234.0311,20.57371,8.128657,-0.40752,-0.9853175,0.5655888,-4.818465,34.20009,11.58627,992.2188
7.517827988,257.254,29.3933,30.96638,-0.5086597,-0.8351783,0.5300077,-4.818465,34.20009,11.58627,992.2188
7.527973175,243.6299,11.04855,61.94732,-0.6554329,-0.7396416,0.493036,-4.818465,34.20009,11.58627,992.2188
7.535581589,211.9847,-15.64541,76.51938,-0.6878392,-0.7830938,0.4518663,-4.818465,34.20009,11.58627,992.2205
7.543190956,192.9729,-36.51845,90.96899,-0.5704942,-0.944725,0.4992189,-4.818465,34.20009,11.58627,992.2205
7.550799847,185.5415,-47.16076,108.235,-0.4797153,-1.086185,0.5219404,-12.74915,31.24369,4.555153,992.2205
7.558408737,188.6379,-52.7465,121.8887,-0.441649,-1.140985,0.5490741,-12.74915,31.24369,4.555153,992.2205
7.566017628,192.2297,-54.09883,133.9504,-0.3693613,-1.226191,0.5698571,-12.74915,31.24369,4.555153,992.2205
7.573626995,202.3859,-47.16076,141.2977,-0.3351807,-1.247202,0.6431027,-12.74915,31.24369,4.555153,992.22
7.581235409,211.0558,-36.51845,141.6038,-0.3275686,-1.249754,0.6161969,-12.74915,31.24369,4.555153,992.22
7.588844776,218.2394,-27.46367,137.6853,-0.2841933,-1.238015,0.6570204,-12.74915,31.24369,4.555153,992.22
7.596453190,217.9298,-15.23383,131.685,-0.2541676,-1.256321,0.6933538,-21.70027,26.50814,6.475191,992.22
7.604062557,215.0811,-3.650769,126.297,-0.2588117,-1.347878,0.6722551,-21.70027,26.50814,6.475191,992.22
7.611670971,219.3541,5.697999,121.5213,-0.2885609,-1.415441,0.6324464,-21.70027,26.50814,6.475191,992.22
7.621934414,235.0219,16.63429,112.5822,-0.30078,-1.426915,0.604521,-21.70027,26.50814,6.475191,992.2195
7.629543781,234.8361,19.75055,109.4596,-0.2883574,-1.340519,0.6200781,-21.70027,26.50814,6.475191,992.2195
7.637152195,228.5195,23.16079,105.1737,-0.2336704,-1.31626,0.627014,-21.70027,26.50814,6.475191,992.2195
7.644761562,222.884,30.45165,101.0102,-0.1750701,-1.290565,0.6402818,-21.70027,26.50814,6.475191,992.2195
7.652369976,213.471,40.3884,98.25502,-0.1229138,-1.273059,0.69529,-15.56323,35.38251,-0.6604201,992.2195
7.659979343,201.457,51.38349,95.74471,-0.1064824,-1.326317,0.6836805,-15.56323,35.38251,-0.6604201,992.2191
7.667588234,194.2114,59.02713,92.86703,-0.1332979,-1.400544,0.637848,-15.56323,35.38251,-0.6604201,992.2191
7.675197601,191.9201,61.32022,88.45867,-0.1601156,-1.442172,0.5635611,-15.56323,35.38251,-0.6604201,992.2191
7.682806015,191.9201,58.73315,81.9686,-0.1727093,-1.430737,0.5108531,-15.56323,35.38251,-0.6604201,992.2191
7.690415382,191.2389,52.08905,74.43766,-0.1168741,-1.386979,0.4982707,-15.56323,35.38251,-0.6604201,992.2191
7.698024750,180.7112,45.09218,67.45776,-0.03191754,-1.365157,0.5998591,-2.117832,37.14016,-8.426103,992.2186
7.705633163,160.5846,38.44809,63.84536,0.05512367,-1.528309,0.6147986,-2.117832,37.14016,-8.426103,992.2186
7.713242531,149.3137,27.80578,65.55972,0.1007248,-1.71365,0.5735579,-2.117832,37.14016,-8.426103,992.2186
7.723383903,181.3304,30.15767,60.04928,0.1740826,-1.792877,0.4717562,-2.117832,37.14016,-8.426103,992.2186
7.730992317,208.8883,42.3287,61.64119,0.2386484,-1.609468,0.5037662,-2.117832,37.14016,-8.426103,992.2186
7.738601685,201.3331,43.79864,63.04941,0.1559216,-1.386714,0.4166556,-2.117832,37.14016,-8.426103,992.2203
7.746210098,182.5071,33.39152,57.72265,0.151342,-1.357505,0.2795656,-1.484378,37.87608,-15.07113,992.2203
7.753819466,170.8027,26.45344,52.45711,0.1913349,-1.342111,0.1822034,-1.484378,37.87608,-15.07113,992.2203
7.761427879,154.268,23.57237,47.86508,0.2582868,-1.309108,0.1473639,-1.484378,37.87608,-15.07113,992.2203
7.769037247,131.4166,22.27883,44.37513,0.3230114,-1.305954,0.1016169,-1.484378,37.87608,-15.07113,992.2203
7.776646137,108.751,23.92516,39.90555,0.3934244,-1.355627,0.03559363,-1.484378,37.87608,-15.07113,992.2203
7.784255028,95.74612,28.21736,36.72174,0.4652928,-1.380787,-0.06979869,-1.484378,37.87608,-15.07113,992.2181
7.791863918,87.20007,37.09575,34.33388,0.4840846,-1.343476,-0.1129063,-1.484378,37.87608,-15.07113,992.2181
7.799473286,75.43377,45.20977,28.45607,0.3769974,-1.246806,-0.1672221,-5.836617,39.01525,-25.22823,992.2181
7.807081699,56.29806,37.44853,13.76155,0.2608491,-1.194312,-0.25756,-5.836617,39.01525,-25.22823,992.2181
7.817226887,30.53607,15.16436,-9.382306,0.2473897,-1.227828,-0.3561152,-5.836617,39.01525,-25.22823,992.2181
7.824836254,12.70085,5.168823,-21.50528,0.3369912,-1.263036,-0.29145,-5.836617,39.01525,-25.22823,992.2159
7.832444668,-6.806432,2.934527,-27.81168,0.3726309,-1.345029,-0.301456,-5.836617,39.01525,-25.22823,992.2159
7.840054035,-16.21947,1.817378,-32.1588,0.3978743,-1.367591,-0.3328714,-5.836617,39.01525,-25.22823,992.2159
7.847666264,-21.23562,7.344323,-33.44457,0.3698723,-1.261214,-0.2361635,-5.52714,37.90872,-30.13809,992.2159
7.855271816,-37.64651,7.991093,-37.36311,0.2891974,-1.167064,-0.1919011,-5.52714,37.90872,-30.13809,992.2159
7.862881184,-54.61475,1.170608,-42.93478,0.2424196,-1.123084,-0.1568848,-5.52714,37.90872,-30.13809,992.2137
7.870490074,55.43107,31.27482,-31.05672,-0.4374983,-0.8847345,0.8676778,-5.52714,37.90872,-30.13809,992.2137
7.878098965,23.10473,32.62716,-68.34405,-1.215206,0.8853175,-0.7708185,-5.52714,37.90872,-30.13809,992.2137
7.885707855,231.492,-50.21822,-120.1422,-1.884006,0.9278778,2.381013,-5.52714,37.90872,-30.13809,992.2137
7.893320560,58.52747,-92.25828,-237.0248,-1.217996,0.8527653,1.533263,-5.894265,35.69891,-31.39847,992.2137
7.900925636,-130.3525,-231.0199,-232.9839,-0.1299442,-0.2117418,0.3681373,-5.894265,35.69891,-31.39847,992.2154
7.908535004,-370.9423,-313.7476,-186.2063,0.7252188,-0.4952235,0.9529401,-5.894265,35.69891,-31.39847,992.2154
7.918676376,-646.0259,-258.1254,-118.7952,1.80131,-1.335042,2.23435,-5.894265,35.69891,-31.39847,992.2154
7.926284790,-426.3058,-10.00088,26.00698,1.726104,-3.179352,-0.4334915,-5.894265,35.69891,-31.39847,992.2154
7.933894157,-25.75636,78.01865,136.2771,0.7168696,-2.533084,0.4012478,-5.894265,35.69891,-31.39847,992.2154
7.941502571,51.59155,101.0672,99.23465,0.3963938,-0.6523104,1.372707,-11.43493,34.62796,-27.81639,992.2132
7.949111938,-83.72084,95.83423,-18.01534,-0.008711648,-0.3189313,1.728626,-11.43493,34.62796,-27.81639,992.2132
7.956720829,-181.9384,73.43246,-63.38465,-0.2017259,-1.367968,0.832501,-11.43493,34.62796,-27.81639,992.2132
7.964329720,-148.869,40.3296,-6.688312,-0.6284656,-1.887196,0.4152812,-11.43493,34.62796,-27.81639,992.2132
7.971938610,-70.22057,30.21647,29.68061,-0.8006038,-1.233963,0.4699875,-11.43493,34.62796,-27.81639,992.2132
7.979547977,-53.31426,5.521607,8.06743,-0.467322,-0.8401107,0.7520965,-11.43493,34.62796,-27.81639,992.2132
7.987156391,-68.42466,-20.58438,2.92435,-0.08686487,-0.6130583,0.8175907,-11.43493,34.62796,-27.81639,992.2107
7.994765759,-81.98686,-17.87971,-3.749409,0.07529824,-0.4539221,0.890595,-15.2135,39.0766,-22.87976,992.2107
8.002375126,-91.70954,19.39777,-4.055544,0.02850613,-0.5906281,0.8941076,-15.2135,39.0766,-22.87976,992.2107
8.012520313,-88.79893,56.38126,16.82291,-0.5311232,-0.6908831,0.7083952,-15.2135,39.0766,-22.87976,992.2107
8.020128727,-94.49629,64.67167,-1.239096,-1.364571,-1.01323,0.9477783,-15.2135,39.0766,-22.87976,992.2107
8.027738094,-90.22327,-50.5122,-38.34275,-1.04234,-1.386396,-0.8970538,-15.2135,39.0766,-22.87976,992.2124
8.035346508,10.5953,-158.17,-63.32342,-0.01656109,-0.4915999,0.8242406,-15.2135,39.0766,-22.87976,992.2124
8.042955875,-37.95615,-133.0636,-95.28399,0.5862765,-0.4834675,1.684325,-15.19158,40.18196,-20.65296,992.2124
8.050564766,-109.6067,-33.04941,-88.12041,0.4461727,-0.8198903,1.035771,-15.19158,40.18196,-20.65296,992.2124
8.058173656,-59.25933,30.45165,-11.15789,0.2973706,-1.435638,0.5200171,-15.19158,40.18196,-20.65296,992.2124
8.065782547,-1.170996,31.27482,57.90633,0.001237118,-1.077398,0.5785714,-15.19158,40.18196,-20.65296,992.2119
8.073391914,11.71,8.402674,35.31351,-0.228508,-0.5219345,0.7429768,-15.19158,40.18196,-20.65296,992.2119
8.081000328,16.66423,11.69532,-24.934,-0.3243691,-0.5372939,0.7623977,-15.19158,40.18196,-20.65296,992.2119
8.088609695,-6.682576,-5.120701,-20.89301,-0.07874109,-0.828273,0.7214181,-17.04583,40.56256,-19.35612,992.2119
8.096218109,-20.92599,-24.75899,-1.606459,-0.08572996,-0.6385264,0.8072453,-17.04583,40.56256,-19.35612,992.2119
8.103827476,-22.84575,-9.295308,-8.525126,-0.033287,-0.7817186,0.7576834,-17.04583,40.56256,-19.35612,992.2114
8.113972664,-1.35678,5.168823,0.4140371,-0.1546206,-0.7085348,0.7190046,-17.04583,40.56256,-19.35612,992.2114
8.122159481,-1.666419,3.404905,-3.320819,-0.1710882,-0.6552264,0.7252589,-17.04583,40.56256,-19.35612,992.2114
8.129768848,-11.45102,-1.945648,-2.953456,-0.1591412,-0.67979,0.7357854,-17.04583,40.56256,-19.35612,992.2114
8.137377262,-13.43271,-2.76881,-2.64732,-0.1095461,-0.7671602,0.6997291,-17.41273,40.56483,-18.90509,992.2114
8.144986629,-5.69173,1.582189,-0.1982344,-0.1140995,-0.7488545,0.6972737,-17.41273,40.56483,-18.90509,992.2114
8.152595043,-1.542563,5.227621,-0.3206887,-0.1587662,-0.6891638,0.7063445,-17.41273,40.56483,-18.90509,992.2132
8.160204410,-3.586183,2.464149,-0.9941873,-0.1676291,-0.6800475,0.7003005,-17.41273,40.56483,-18.90509,992.2132
8.167812824,-5.072452,-0.1817291,-1.422777,-0.1484669,-0.6877514,0.7238237,-17.41273,40.56483,-18.90509,992.2132
8.175422191,-5.629803,0.6414328,-1.606459,-0.1323299,-0.7039154,0.7189294,-17.41273,40.56483,-18.90509,992.2132
8.183031082,-3.586183,0.8178247,-1.239096,-0.1265813,-0.703262,0.7081841,-17.41273,40.56483,-18.90509,992.2132
8.190639972,-2.533409,2.052567,-1.177869,-0.141632,-0.6934385,0.7216863,-17.41726,40.93364,-18.90683,992.2109
8.198248863,-3.214616,1.758581,-1.177869,-0.136296,-0.6976559,0.7152129,-17.41726,40.93364,-18.90683,992.2109
8.208394050,-3.710039,0.6414328,-1.239096,-0.1283531,-0.7135252,0.7196454,-17.41726,40.93364,-18.90683,992.2109
8.216003418,-3.152688,1.758581,-0.01455296,-0.1376415,-0.7197456,0.7015583,-17.41726,40.93364,-18.90683,992.2109
8.223612785,-0.304006,2.758135,0.04667418,-0.1553939,-0.7057652,0.6796315,-17.41726,40.93364,-18.90683,992.2109
8.231221199,0.2533448,1.347,-0.8105059,-0.1520649,-0.6832318,0.7000977,-17.41726,40.93364,-18.90683,992.2144
8.238830566,-0.737501,1.523392,-1.116642,-0.1608267,-0.6709176,0.7136065,-17.03616,40.93094,-18.46505,992.2144
8.246438980,-0.3659339,0.7002301,-2.157503,-0.161893,-0.6722291,0.6975147,-17.03616,40.93094,-18.46505,992.2144
8.254048347,-0.7994289,-0.8872965,-2.953456,-0.1525639,-0.6755948,0.7085592,-17.03616,40.93094,-18.46505,992.2144
8.261657238,-1.04714,-0.5933101,-3.810636,-0.1574702,-0.6698657,0.7087338,-17.03616,40.93094,-18.46505,992.2144
8.269266128,-1.35678,-1.063688,-4.851498,-0.1682146,-0.6732454,0.694621,-17.03616,40.93094,-18.46505,992.2139
8.276875019,-1.480635,-2.474823,-5.831132,-0.1610023,-0.662577,0.6987074,-17.03616,40.93094,-18.46505,992.2139
8.284484386,-4.019678,-5.003106,-6.382176,-0.1212711,-0.6912421,0.7201092,-17.02906,40.93073,-18.01864,992.2139
8.292092800,-3.710039,-3.239188,-5.64745,-0.1134801,-0.7021388,0.7085895,-17.02906,40.93073,-18.01864,992.2139
8.299702167,-2.533409,-1.475269,-4.79027,-0.1309769,-0.6851715,0.7290968,-17.02906,40.93073,-18.01864,992.2139
8.309847355,-3.152688,-2.710012,-4.973952,-0.148618,-0.6756318,0.7177783,-17.02906,40.93073,-18.01864,992.2156
8.317451954,-4.019678,-3.356782,-5.402542,-0.1432449,-0.681806,0.7141806,-17.02906,40.93073,-18.01864,992.2156
8.325061321,-5.753658,-4.944309,-5.586223,-0.1378373,-0.6932692,0.7085108,-17.02906,40.93073,-18.01864,992.2156
8.332669735,-4.948596,-3.474377,-5.769905,-0.1432169,-0.6975699,0.6967672,-17.02906,40.93073,-18.01864,992.2156
8.340279102,-4.329318,-3.709566,-5.953586,-0.1400956,-0.7149737,0.7041251,-17.78416,40.93591,-18.45579,992.2156
8.347887516,-6.125226,-5.649876,-5.524996,-0.1065306,-0.7227551,0.7031796,-17.78416,40.93591,-18.45579,992.2156
8.355496883,-5.072452,-3.768363,-4.055544,-0.08796508,-0.736508,0.7017305,-17.78416,40.93591,-18.45579,992.2134
8.363107681,-3.152688,-0.8284993,-2.586093,-0.1075355,-0.7236736,0.6968358,-17.78416,40.93591,-18.45579,992.2134
8.370714664,-2.285698,0.2298518,-2.157503,-0.1266183,-0.7117892,0.6909407,-17.78416,40.93591,-18.45579,992.2134
8.378324032,-3.462327,-1.710458,-1.728913,-0.1158896,-0.7117239,0.6981584,-17.78416,40.93591,-18.45579,992.2134
8.385932922,-4.515101,-1.357675,-0.9329602,-0.1007216,-0.7198014,0.7046618,-17.38238,39.82653,-17.5624,992.2134
8.393541813,-3.462327,0.9354192,0.1079013,-0.1245726,-0.71286,0.7050208,-17.38238,39.82653,-17.5624,992.2151
8.403687477,-3.214616,-0.1817291,0.1691285,-0.1202658,-0.7084323,0.7016804,-17.38238,39.82653,-17.5624,992.2151
8.411295891,-4.453173,-0.769702,0.7201728,-0.0993515,-0.7163299,0.6964535,-17.38238,39.82653,-17.5624,992.2151
8.418905258,-3.833894,0.1710545,2.128397,-0.1017193,-0.7150114,0.7072171,-17.38238,39.82653,-17.5624,992.2151
8.426513672,-2.904976,2.228959,2.740669,-0.1295163,-0.708033,0.698357,-17.38238,39.82653,-17.5624,992.2151
8.434123039,-2.843049,1.464595,2.49576,-0.1392965,-0.7009078,0.6976306,-17.77963,40.56709,-18.45406,992.213
8.441731453,-3.214616,0.6414328,2.06717,-0.1388633,-0.6965418,0.6957815,-17.77963,40.56709,-18.45406,992.213
8.449340820,-2.781121,0.8766219,1.822261,-0.1402103,-0.7000446,0.7073977,-17.77963,40.56709,-18.45406,992.213
8.456949711,-3.028832,1.111811,1.63858,-0.1499963,-0.6962473,0.7012366,-17.77963,40.56709,-18.45406,992.213
8.464559078,-2.285698,0.4062437,0.8426271,-0.1441169,-0.7014909,0.7020394,-17.77963,40.56709,-18.45406,992.213
8.472167492,-2.471481,-0.1817291,0.6589457,-0.1363527,-0.7061561,0.6950485,-17.77963,40.56709,-18.45406,992.213
